File: VSM data/D2Sresistivity.txt
DEPT .m 	Cali in	DT us/ft	GR  gAPI	LLD ohmm	LLS ohmm	MSFL ohmm	NPHI m3/m3	RHOB g/cm3	SP mV	MD M	TVDSS	UTME	UTMN
1219.17	-999.25	-999.25	-999.25	-999.25	-999.25	-999.25	-999.25	-999.25	-999.25	1219.2	1208	399495	85650.1
1220.47	-999.25	-999.25	-999.25	-999.25	-999.25	-999.25	-999.25	-999.25	-999.25	1220.5	1209.28	399495	85650
1221.77	-999.25	-999.25	-999.25	-999.25	-999.25	-999.25	-999.25	-999.25	-999.25	1221.8	1210.57	399495	85649.8
1223.07	-999.25	-999.25	-999.25	-999.25	-999.25	-999.25	-999.25	-999.25	-999.25	1223.1	1211.85	399496	85649.7
1224.37	-999.25	-999.25	-999.25	-999.25	-999.25	-999.25	-999.25	-999.25	-999.25	1224.4	1213.14	399496	85649.6
1225.67	-999.25	-999.25	-999.25	-999.25	-999.25	-999.25	-999.25	-999.25	-999.25	1225.7	1214.42	399496.25	85649.4
1226.97	-999.25	-999.25	-999.25	-999.25	-999.25	-999.25	-999.25	-999.25	-999.25	1227	1215.7	399496.5	85649.3
1228.27	-999.25	-999.25	-999.25	-999.25	-999.25	-999.25	-999.25	-999.25	-999.25	1228.3	1216.99	399497	85649.2
1229.57	-999.25	-999.25	-999.25	-999.25	-999.25	-999.25	-999.25	-999.25	-999.25	1229.6	1218.27	399497	85649
1230.87	-999.25	-999.25	-999.25	-999.25	-999.25	-999.25	-999.25	-999.25	-999.25	1230.91	1219.56	399497	85648.9
1232.17	-999.25	-999.25	-999.25	-999.25	-999.25	-999.25	-999.25	-999.25	-999.25	1232.21	1220.84	399498	85648.8
1233.47	-999.25	-999.25	-999.25	-999.25	-999.25	-999.25	-999.25	-999.25	-999.25	1233.51	1222.12	399498	85648.6
1234.77	-999.25	-999.25	-999.25	-999.25	-999.25	-999.25	-999.25	-999.25	-999.25	1234.81	1223.41	399498	85648.5
1236.07	-999.25	-999.25	-999.25	-999.25	-999.25	-999.25	-999.25	-999.25	-999.25	1236.11	1224.69	399498.375	85648.4
1237.37	-999.25	-999.25	-999.25	-999.25	-999.25	-999.25	-999.25	-999.25	-999.25	1237.41	1225.97	399498.625	85648.2
1238.67	-999.25	-999.25	-999.25	-999.25	-999.25	-999.25	-999.25	-999.25	-999.25	1238.71	1227.26	399499	85648.1
1239.97	-999.25	-999.25	-999.25	-999.25	-999.25	-999.25	-999.25	-999.25	-999.25	1240.01	1228.54	399499	85648
1241.27	-999.25	-999.25	-999.25	-999.25	-999.25	-999.25	-999.25	-999.25	-999.25	1241.31	1229.83	399499	85647.8
1242.57	-999.25	-999.25	-999.25	-999.25	-999.25	-999.25	-999.25	-999.25	-999.25	1242.61	1231.11	399500	85647.7
1243.87	-999.25	-999.25	-999.25	-999.25	-999.25	-999.25	-999.25	-999.25	-999.25	1243.91	1232.39	399500	85647.6
1245.17	-999.25	-999.25	-999.25	-999.25	-999.25	-999.25	-999.25	-999.25	-999.25	1245.21	1233.68	399500.25	85647.4
1246.47	-999.25	-999.25	-999.25	-999.25	-999.25	-999.25	-999.25	-999.25	-999.25	1246.51	1234.96	399500.5	85647.3
1247.77	-999.25	-999.25	-999.25	-999.25	-999.25	-999.25	-999.25	-999.25	-999.25	1247.81	1236.25	399501	85647.2
1249.07	-999.25	-999.25	-999.25	-999.25	-999.25	-999.25	-999.25	-999.25	-999.25	1249.11	1237.53	399501	85647
1250.37	-999.25	-999.25	-999.25	-999.25	-999.25	-999.25	-999.25	-999.25	-999.25	1250.42	1238.8	399498	85646.6
1251.67	-999.25	-999.25	-999.25	-999.25	-999.25	-999.25	-999.25	-999.25	-999.25	1251.71	1240.07	399499	85646.4
1252.97	-999.25	-999.25	-999.25	-999.25	-999.25	-999.25	-999.25	-999.25	-999.25	1253.01	1241.34	399498.875	85646.2
1254.27	-999.25	-999.25	-999.25	-999.25	-999.25	-999.25	-999.25	-999.25	-999.25	1254.3	1242.61	399499.125	85646
1255.57	-999.25	-999.25	-999.25	-999.25	-999.25	-999.25	-999.25	-999.25	-999.25	1255.59	1243.88	399499	85645.8
1256.87	-999.25	-999.25	-999.25	-999.25	-999.25	-999.25	-999.25	-999.25	-999.25	1256.89	1245.15	399500	85645.6
1258.17	-999.25	-999.25	-999.25	-999.25	-999.25	-999.25	-999.25	-999.25	-999.25	1258.18	1246.42	399500	85645.4
1259.47	-999.25	-999.25	-999.25	-999.25	-999.25	-999.25	-999.25	-999.25	-999.25	1259.48	1247.69	399500	85645.2
1260.77	-999.25	-999.25	-999.25	-999.25	-999.25	-999.25	-999.25	-999.25	-999.25	1260.77	1248.96	399500	85645
1262.07	-999.25	-999.25	-999.25	-999.25	-999.25	-999.25	-999.25	-999.25	-999.25	1262.07	1250.23	399501	85644.8
1263.37	-999.25	-999.25	-999.25	-999.25	-999.25	-999.25	-999.25	-999.25	-999.25	1263.36	1251.5	399501	85644.6
1264.67	-999.25	-999.25	-999.25	-999.25	-999.25	-999.25	-999.25	-999.25	-999.25	1264.65	1252.77	399501	85644.4
1265.97	-999.25	-999.25	-999.25	-999.25	-999.25	-999.25	-999.25	-999.25	-999.25	1265.95	1254.03	399502	85644.2
1267.27	-999.25	-999.25	-999.25	-999.25	-999.25	-999.25	-999.25	-999.25	-999.25	1267.24	1255.3	399502	85644
1268.57	-999.25	-999.25	-999.25	-999.25	-999.25	-999.25	-999.25	-999.25	-999.25	1268.54	1256.57	399502	85643.8
1269.87	-999.25	-999.25	-999.25	-999.25	-999.25	-999.25	-999.25	-999.25	-999.25	1269.83	1257.84	399502	85643.6
1271.17	-999.25	-999.25	-999.25	-999.25	-999.25	-999.25	-999.25	-999.25	-999.25	1271.13	1259.11	399503	85643.4
1272.47	-999.25	-999.25	-999.25	-999.25	-999.25	-999.25	-999.25	-999.25	-999.25	1272.42	1260.38	399502.875	85643.2
1273.77	-999.25	-999.25	-999.25	-999.25	-999.25	-999.25	-999.25	-999.25	-999.25	1273.71	1261.65	399503.125	85643
1275.07	-999.25	-999.25	-999.25	-999.25	-999.25	-999.25	-999.25	-999.25	-999.25	1275.01	1262.92	399503	85642.8
1276.37	-999.25	-999.25	-999.25	-999.25	-999.25	-999.25	-999.25	-999.25	-999.25	1276.3	1264.19	399504	85642.6
1277.67	-999.25	-999.25	-999.25	-999.25	-999.25	-999.25	-999.25	-999.25	-999.25	1277.6	1265.46	399504	85642.4
1278.97	-999.25	-999.25	-999.25	-999.25	-999.25	-999.25	-999.25	-999.25	-999.25	1278.89	1266.73	399504	85642.2
1280.27	-999.25	-999.25	-999.25	-999.25	-999.25	-999.25	-999.25	-999.25	-999.25	1280.19	1267.99	399502.5	85642.6
1281.57	-999.25	-999.25	-999.25	-999.25	-999.25	-999.25	-999.25	-999.25	-999.25	1281.49	1269.27	399503	85642.4
1282.87	-999.25	-999.25	-999.25	-999.25	-999.25	-999.25	-999.25	-999.25	-999.25	1282.79	1270.54	399503	85642.2
1284.17	-999.25	-999.25	-999.25	-999.25	-999.25	-999.25	-999.25	-999.25	-999.25	1284.1	1271.82	399503.125	85642
1285.47	-999.25	-999.25	-999.25	-999.25	-999.25	-999.25	-999.25	-999.25	-999.25	1285.4	1273.1	399503.375	85641.8
1286.77	-999.25	-999.25	-999.25	-999.25	-999.25	-999.25	-999.25	-999.25	-999.25	1286.7	1274.38	399504	85641.6
1288.07	-999.25	-999.25	-999.25	-999.25	-999.25	-999.25	-999.25	-999.25	-999.25	1288	1275.65	399504	85641.4
1289.37	-999.25	-999.25	-999.25	-999.25	-999.25	-999.25	-999.25	-999.25	-999.25	1289.31	1276.93	399504	85641.2
1290.67	-999.25	-999.25	-999.25	-999.25	-999.25	-999.25	-999.25	-999.25	-999.25	1290.61	1278.21	399504	85641
1291.97	-999.25	-999.25	-999.25	-999.25	-999.25	-999.25	-999.25	-999.25	-999.25	1291.91	1279.49	399505	85640.8
1293.27	-999.25	-999.25	-999.25	-999.25	-999.25	-999.25	-999.25	-999.25	-999.25	1293.21	1280.76	399505	85640.6
1294.57	-999.25	-999.25	-999.25	-999.25	-999.25	-999.25	-999.25	-999.25	-999.25	1294.52	1282.04	399505.25	85640.4
1295.87	-999.25	-999.25	-999.25	-999.25	-999.25	-999.25	-999.25	-999.25	-999.25	1295.82	1283.32	399505.5	85640.2
1297.17	-999.25	-999.25	-999.25	-999.25	-999.25	-999.25	-999.25	-999.25	-999.25	1297.12	1284.6	399506	85640
1298.47	-999.25	-999.25	-999.25	-999.25	-999.25	-999.25	-999.25	-999.25	-999.25	1298.42	1285.875	399506	85639.8
1299.77	-999.25	-999.25	-999.25	-999.25	-999.25	-999.25	-999.25	-999.25	-999.25	1299.73	1287.15	399506	85639.6
1301.07	-999.25	-999.25	-999.25	-999.25	-999.25	-999.25	-999.25	-999.25	-999.25	1301.03	1288.43	399507	85639.4
1302.37	-999.25	-999.25	-999.25	-999.25	-999.25	-999.25	-999.25	-999.25	-999.25	1302.33	1289.71	399507	85639.2
1303.67	-999.25	-999.25	-999.25	-999.25	-999.25	-999.25	-999.25	-999.25	-999.25	1303.64	1290.99	399507	85639
1304.97	-999.25	-999.25	-999.25	-999.25	-999.25	-999.25	-999.25	-999.25	-999.25	1304.94	1292.26	399507.375	85638.8
1306.27	-999.25	-999.25	-999.25	-999.25	-999.25	-999.25	-999.25	-999.25	-999.25	1306.24	1293.54	399508	85638.6
1307.57	-999.25	-999.25	-999.25	-999.25	-999.25	-999.25	-999.25	-999.25	-999.25	1307.54	1294.82	399508	85638.4
1308.87	-999.25	-999.25	-999.25	-999.25	-999.25	-999.25	-999.25	-999.25	-999.25	1308.85	1296.1	399508	85638.2
1310.17	-999.25	-999.25	-999.25	-999.25	-999.25	-999.25	-999.25	-999.25	-999.25	1310.15	1297.37	399508	85638
1311.47	-999.25	-999.25	-999.25	-999.25	-999.25	-999.25	-999.25	-999.25	-999.25	1311.46	1298.64	399506	85637.2
1312.77	-999.25	-999.25	-999.25	-999.25	-999.25	-999.25	-999.25	-999.25	-999.25	1312.76	1299.91	399507	85637
1314.07	-999.25	-999.25	-999.25	-999.25	-999.25	-999.25	-999.25	-999.25	-999.25	1314.06	1301.17	399507	85636.7
1315.37	-999.25	-999.25	-999.25	-999.25	-999.25	-999.25	-999.25	-999.25	-999.25	1315.36	1302.44	399507	85636.4
1316.67	-999.25	-999.25	-999.25	-999.25	-999.25	-999.25	-999.25	-999.25	-999.25	1316.66	1303.71	399507	85636.2
1317.97	-999.25	-999.25	-999.25	-999.25	-999.25	-999.25	-999.25	-999.25	-999.25	1317.96	1304.97	399508	85635.9
1319.27	-999.25	-999.25	-999.25	-999.25	-999.25	-999.25	-999.25	-999.25	-999.25	1319.26	1306.24	399507.875	85635.625
1320.57	-999.25	-999.25	-999.25	-999.25	-999.25	-999.25	-999.25	-999.25	-999.25	1320.56	1307.51	399508.125	85635.4
1321.87	-999.25	-999.25	-999.25	-999.25	-999.25	-999.25	-999.25	-999.25	-999.25	1321.86	1308.78	399508	85635.1
1323.17	-999.25	-999.25	-999.25	-999.25	-999.25	-999.25	-999.25	-999.25	-999.25	1323.17	1310.04	399509	85634.8
1324.47	-999.25	-999.25	-999.25	-999.25	-999.25	-999.25	-999.25	-999.25	-999.25	1324.47	1311.31	399509	85634.6
1325.77	-999.25	-999.25	-999.25	-999.25	-999.25	-999.25	-999.25	-999.25	-999.25	1325.77	1312.58	399509	85634.3
1327.07	-999.25	-999.25	-999.25	-999.25	-999.25	-999.25	-999.25	-999.25	-999.25	1327.07	1313.85	399509	85634
1328.37	-999.25	-999.25	-999.25	-999.25	-999.25	-999.25	-999.25	-999.25	-999.25	1328.37	1315.11	399509.75	85633.8
1329.67	-999.25	-999.25	-999.25	-999.25	-999.25	-999.25	-999.25	-999.25	-999.25	1329.67	1316.38	399510	85633.5
1330.97	-999.25	-999.25	-999.25	-999.25	-999.25	-999.25	-999.25	-999.25	-999.25	1330.97	1317.65	399510	85633.2
1332.27	-999.25	-999.25	-999.25	-999.25	-999.25	-999.25	-999.25	-999.25	-999.25	1332.27	1318.91	399511	85633
1333.57	-999.25	-999.25	-999.25	-999.25	-999.25	-999.25	-999.25	-999.25	-999.25	1333.57	1320.18	399511	85632.7
1334.87	-999.25	-999.25	-999.25	-999.25	-999.25	-999.25	-999.25	-999.25	-999.25	1334.87	1321.45	399511	85632.4
1336.17	-999.25	-999.25	-999.25	-999.25	-999.25	-999.25	-999.25	-999.25	-999.25	1336.17	1322.72	399511	85632.2
1337.47	-999.25	-999.25	-999.25	-999.25	-999.25	-999.25	-999.25	-999.25	-999.25	1337.47	1323.98	399512	85631.9
1338.77	-999.25	-999.25	-999.25	-999.25	-999.25	-999.25	-999.25	-999.25	-999.25	1338.77	1325.25	399511.875	85631.625
1340.07	-999.25	-999.25	-999.25	-999.25	-999.25	-999.25	-999.25	-999.25	-999.25	1340.07	1326.52	399512.125	85631.4
1341.37	-999.25	-999.25	-999.25	-999.25	-999.25	-999.25	-999.25	-999.25	-999.25	1341.38	1327.77	399509.875	85631.3
1342.67	-999.25	-999.25	-999.25	-999.25	-999.25	-999.25	-999.25	-999.25	-999.25	1342.68	1329.03	399510.125	85631.1
1343.97	-999.25	-999.25	-999.25	-999.25	-999.25	-999.25	-999.25	-999.25	-999.25	1343.98	1330.29	399510	85630.8
1345.27	-999.25	-999.25	-999.25	-999.25	-999.25	-999.25	-999.25	-999.25	-999.25	1345.28	1331.54	399511	85630.5
1346.57	-999.25	-999.25	-999.25	-999.25	-999.25	-999.25	-999.25	-999.25	-999.25	1346.58	1332.8	399511	85630.3
1347.87	-999.25	-999.25	-999.25	-999.25	-999.25	-999.25	-999.25	-999.25	-999.25	1347.88	1334.06	399511	85630
1349.17	-999.25	-999.25	-999.25	-999.25	-999.25	-999.25	-999.25	-999.25	-999.25	1349.18	1335.32	399511	85629.7
1350.47	-999.25	-999.25	-999.25	-999.25	-999.25	-999.25	-999.25	-999.25	-999.25	1350.48	1336.58	399511.75	85629.5
1351.77	-999.25	-999.25	-999.25	-999.25	-999.25	-999.25	-999.25	-999.25	-999.25	1351.78	1337.83	399512	85629.2
1353.07	-999.25	-999.25	-999.25	-999.25	-999.25	-999.25	-999.25	-999.25	-999.25	1353.09	1339.09	399512	85628.9
1354.37	-999.25	-999.25	-999.25	-999.25	-999.25	-999.25	-999.25	-999.25	-999.25	1354.39	1340.35	399513	85628.7
1355.67	-999.25	-999.25	-999.25	-999.25	-999.25	-999.25	-999.25	-999.25	-999.25	1355.69	1341.61	399513	85628.4
1356.97	-999.25	-999.25	-999.25	-999.25	-999.25	-999.25	-999.25	-999.25	-999.25	1356.99	1342.87	399513	85628.1
1358.27	-999.25	-999.25	-999.25	-999.25	-999.25	-999.25	-999.25	-999.25	-999.25	1358.29	1344.12	399513	85627.875
1359.57	-999.25	-999.25	-999.25	-999.25	-999.25	-999.25	-999.25	-999.25	-999.25	1359.59	1345.38	399514	85627.6
1360.87	-999.25	-999.25	-999.25	-999.25	-999.25	-999.25	-999.25	-999.25	-999.25	1360.89	1346.64	399513.875	85627.3
1362.17	-999.25	-999.25	-999.25	-999.25	-999.25	-999.25	-999.25	-999.25	-999.25	1362.19	1347.9	399514.125	85627.1
1363.47	-999.25	-999.25	-999.25	-999.25	-999.25	-999.25	-999.25	-999.25	-999.25	1363.49	1349.15	399514	85626.8
1364.77	-999.25	-999.25	-999.25	-999.25	-999.25	-999.25	-999.25	-999.25	-999.25	1364.79	1350.41	399515	85626.5
1366.07	-999.25	-999.25	-999.25	-999.25	-999.25	-999.25	-999.25	-999.25	-999.25	1366.09	1351.67	399515	85626.3
1367.37	-999.25	-999.25	-999.25	-999.25	-999.25	-999.25	-999.25	-999.25	-999.25	1367.39	1352.93	399515	85626
1368.67	-999.25	-999.25	-999.25	-999.25	-999.25	-999.25	-999.25	-999.25	-999.25	1368.69	1354.19	399515	85625.7
1369.97	-999.25	-999.25	-999.25	-999.25	-999.25	-999.25	-999.25	-999.25	-999.25	1369.99	1355.44	399515.75	85625.5
1371.27	-999.25	-999.25	-999.25	-999.25	-999.25	-999.25	-999.25	-999.25	-999.25	1371.29	1356.7	399516	85625.2
1372.57	-999.25	-999.25	-999.25	-999.25	-999.25	-999.25	-999.25	-999.25	-999.25	1372.6	1357.96	399514	85624.6
1373.87	-999.25	-999.25	-999.25	-999.25	-999.25	-999.25	-999.25	-999.25	-999.25	1373.9	1359.21	399514	85624.3
1375.17	-999.25	-999.25	-999.25	-999.25	-999.25	-999.25	-999.25	-999.25	-999.25	1375.2	1360.46	399514.75	85624
1376.47	-999.25	-999.25	-999.25	-999.25	-999.25	-999.25	-999.25	-999.25	-999.25	1376.5	1361.71	399515	85623.6
1377.77	-999.25	-999.25	-999.25	-999.25	-999.25	-999.25	-999.25	-999.25	-999.25	1377.8	1362.96	399515	85623.3
1379.07	-999.25	-999.25	-999.25	-999.25	-999.25	-999.25	-999.25	-999.25	-999.25	1379.1	1364.21	399516	85623
1380.37	-999.25	-999.25	-999.25	-999.25	-999.25	-999.25	-999.25	-999.25	-999.25	1380.4	1365.46	399516	85622.6
1381.67	-999.25	-999.25	-999.25	-999.25	-999.25	-999.25	-999.25	-999.25	-999.25	1381.7	1366.71	399516	85622.3
1382.97	-999.25	-999.25	-999.25	-999.25	-999.25	-999.25	-999.25	-999.25	-999.25	1383	1367.96	399516	85622
1384.27	-999.25	-999.25	-999.25	-999.25	-999.25	-999.25	-999.25	-999.25	-999.25	1384.31	1369.21	399517	85621.6
1385.57	-999.25	-999.25	-999.25	-999.25	-999.25	-999.25	-999.25	-999.25	-999.25	1385.61	1370.46	399516.875	85621.3
1386.87	-999.25	-999.25	-999.25	-999.25	-999.25	-999.25	-999.25	-999.25	-999.25	1386.91	1371.71	399517.125	85621
1388.17	-999.25	-999.25	-999.25	-999.25	-999.25	-999.25	-999.25	-999.25	-999.25	1388.21	1372.96	399517	85620.6
1389.47	-999.25	-999.25	-999.25	-999.25	-999.25	-999.25	-999.25	-999.25	-999.25	1389.51	1374.21	399518	85620.3
1390.77	-999.25	-999.25	-999.25	-999.25	-999.25	-999.25	-999.25	-999.25	-999.25	1390.81	1375.45	399518	85620
1392.07	-999.25	-999.25	-999.25	-999.25	-999.25	-999.25	-999.25	-999.25	-999.25	1392.11	1376.7	399518	85619.6
1393.37	-999.25	-999.25	-999.25	-999.25	-999.25	-999.25	-999.25	-999.25	-999.25	1393.41	1377.95	399518	85619.3
1394.67	-999.25	-999.25	-999.25	-999.25	-999.25	-999.25	-999.25	-999.25	-999.25	1394.71	1379.2	399518.75	85619
1395.97	-999.25	-999.25	-999.25	-999.25	-999.25	-999.25	-999.25	-999.25	-999.25	1396.01	1380.45	399519	85618.6
1397.27	-999.25	-999.25	-999.25	-999.25	-999.25	-999.25	-999.25	-999.25	-999.25	1397.31	1381.7	399519	85618.3
1398.57	-999.25	-999.25	-999.25	-999.25	-999.25	-999.25	-999.25	-999.25	-999.25	1398.61	1382.95	399520	85618
1399.87	-999.25	-999.25	-999.25	-999.25	-999.25	-999.25	-999.25	-999.25	-999.25	1399.91	1384.2	399520	85617.6
1401.17	-999.25	-999.25	-999.25	-999.25	-999.25	-999.25	-999.25	-999.25	-999.25	1401.21	1385.45	399520	85617.3
1402.47	-999.25	-999.25	-999.25	-999.25	-999.25	-999.25	-999.25	-999.25	-999.25	1402.52	1386.69	399518	85617.7
1403.77	-999.25	-999.25	-999.25	-999.25	-999.25	-999.25	-999.25	-999.25	-999.25	1403.81	1387.92	399519	85617.4
1405.07	-999.25	-999.25	-999.25	-999.25	-999.25	-999.25	-999.25	-999.25	-999.25	1405.11	1389.14	399519	85617
1406.37	-999.25	-999.25	-999.25	-999.25	-999.25	-999.25	-999.25	-999.25	-999.25	1406.4	1390.36	399519	85616.7
1407.67	-999.25	-999.25	-999.25	-999.25	-999.25	-999.25	-999.25	-999.25	-999.25	1407.7	1391.58	399519	85616.4
1408.97	-999.25	-999.25	-999.25	-999.25	-999.25	-999.25	-999.25	-999.25	-999.25	1408.99	1392.81	399520	85616
1410.27	-999.25	-999.25	-999.25	-999.25	-999.25	-999.25	-999.25	-999.25	-999.25	1410.28	1394.03	399520	85615.7
1411.57	-999.25	-999.25	-999.25	-999.25	-999.25	-999.25	-999.25	-999.25	-999.25	1411.58	1395.25	399520.25	85615.4
1412.87	-999.25	-999.25	-999.25	-999.25	-999.25	-999.25	-999.25	-999.25	-999.25	1412.87	1396.47	399521	85615
1414.17	-999.25	-999.25	-999.25	-999.25	-999.25	-999.25	-999.25	-999.25	-999.25	1414.17	1397.7	399521	85614.7
1415.47	-999.25	-999.25	-999.25	-999.25	-999.25	-999.25	-999.25	-999.25	-999.25	1415.46	1398.92	399521	85614.4
1416.77	-999.25	-999.25	-999.25	-999.25	-999.25	-999.25	-999.25	-999.25	-999.25	1416.76	1400.14	399521	85614
1418.07	-999.25	-999.25	-999.25	-999.25	-999.25	-999.25	-999.25	-999.25	-999.25	1418.05	1401.36	399522	85613.7
1419.37	-999.25	-999.25	-999.25	-999.25	-999.25	-999.25	-999.25	-999.25	-999.25	1419.34	1402.59	399521.875	85613.4
1420.67	-999.25	-999.25	-999.25	-999.25	-999.25	-999.25	-999.25	-999.25	-999.25	1420.64	1403.81	399522.125	85613
1421.97	-999.25	-999.25	-999.25	-999.25	-999.25	-999.25	-999.25	-999.25	-999.25	1421.93	1405.03	399522	85612.7
1423.27	-999.25	-999.25	-999.25	-999.25	-999.25	-999.25	-999.25	-999.25	-999.25	1423.23	1406.25	399523	85612.4
1424.57	-999.25	-999.25	-999.25	-999.25	-999.25	-999.25	-999.25	-999.25	-999.25	1424.52	1407.48	399523	85612
1425.87	-999.25	-999.25	-999.25	-999.25	-999.25	-999.25	-999.25	-999.25	-999.25	1425.82	1408.7	399523	85611.7
1427.17	-999.25	-999.25	-999.25	-999.25	-999.25	-999.25	-999.25	-999.25	-999.25	1427.11	1409.92	399523	85611.4
1428.47	-999.25	-999.25	-999.25	-999.25	-999.25	-999.25	-999.25	-999.25	-999.25	1428.4	1411.14	399524	85611
1429.77	-999.25	-999.25	-999.25	-999.25	-999.25	-999.25	-999.25	-999.25	-999.25	1429.7	1412.37	399524	85610.7
1431.07	-999.25	-999.25	-999.25	-999.25	-999.25	-999.25	-999.25	-999.25	-999.25	1430.99	1413.59	399524.25	85610.4
1432.37	-999.25	-999.25	-999.25	-999.25	-999.25	-999.25	-999.25	-999.25	-999.25	1432.29	1414.81	399525	85610
1433.67	-999.25	-999.25	-999.25	-999.25	-999.25	-999.25	-999.25	-999.25	-999.25	1433.59	1416	399524	85609.5
1434.97	-999.25	-999.25	-999.25	-999.25	-999.25	-999.25	-999.25	-999.25	-999.25	1434.89	1417.19	399525	85609.1
1436.27	-999.25	-999.25	-999.25	-999.25	-999.25	-999.25	-999.25	-999.25	-999.25	1436.19	1418.38	399525	85608.7
1437.57	-999.25	-999.25	-999.25	-999.25	-999.25	-999.25	-999.25	-999.25	-999.25	1437.5	1419.56	399525	85608.3
1438.87	-999.25	-999.25	-999.25	-999.25	-999.25	-999.25	-999.25	-999.25	-999.25	1438.8	1420.75	399525.375	85607.9
1440.17	-999.25	-999.25	-999.25	-999.25	-999.25	-999.25	-999.25	-999.25	-999.25	1440.1	1421.94	399525.625	85607.5
1441.47	-999.25	-999.25	-999.25	-999.25	-999.25	-999.25	-999.25	-999.25	-999.25	1441.41	1423.12	399526	85607.1
1442.77	-999.25	-999.25	-999.25	-999.25	-999.25	-999.25	-999.25	-999.25	-999.25	1442.71	1424.31	399526	85606.7
1444.07	-999.25	-999.25	-999.25	-999.25	-999.25	-999.25	-999.25	-999.25	-999.25	1444.01	1425.5	399526	85606.3
1445.37	-999.25	-999.25	-999.25	-999.25	-999.25	-999.25	-999.25	-999.25	-999.25	1445.31	1426.69	399527	85605.9
1446.67	-999.25	-999.25	-999.25	-999.25	-999.25	-999.25	-999.25	-999.25	-999.25	1446.62	1427.87	399527	85605.5
1447.97	-999.25	-999.25	-999.25	-999.25	-999.25	-999.25	-999.25	-999.25	-999.25	1447.92	1429.06	399527	85605.1
1449.27	-999.25	-999.25	-999.25	-999.25	-999.25	-999.25	-999.25	-999.25	-999.25	1449.22	1430.25	399527.5	85604.7
1450.57	-999.25	-999.25	-999.25	-999.25	-999.25	-999.25	-999.25	-999.25	-999.25	1450.52	1431.43	399527.75	85604.3
1451.87	-999.25	-999.25	-999.25	-999.25	-999.25	-999.25	-999.25	-999.25	-999.25	1451.83	1432.62	399528	85603.9
1453.17	-999.25	-999.25	-999.25	-999.25	-999.25	-999.25	-999.25	-999.25	-999.25	1453.13	1433.81	399528	85603.5
1454.47	-999.25	-999.25	-999.25	-999.25	-999.25	-999.25	-999.25	-999.25	-999.25	1454.43	1434.99	399529	85603.1
1455.77	-999.25	-999.25	-999.25	-999.25	-999.25	-999.25	-999.25	-999.25	-999.25	1455.73	1436.18	399529	85602.7
1457.07	-999.25	-999.25	-999.25	-999.25	-999.25	-999.25	-999.25	-999.25	-999.25	1457.04	1437.37	399529	85602.3
1458.37	-999.25	-999.25	-999.25	-999.25	-999.25	-999.25	-999.25	-999.25	-999.25	1458.34	1438.56	399529.375	85601.9
1459.67	-999.25	-999.25	-999.25	-999.25	-999.25	-999.25	-999.25	-999.25	-999.25	1459.64	1439.74	399529.625	85601.5
1460.97	-999.25	-999.25	-999.25	-999.25	-999.25	-999.25	-999.25	-999.25	-999.25	1460.95	1440.93	399530	85601.1
1462.27	-999.25	-999.25	-999.25	-999.25	-999.25	-999.25	-999.25	-999.25	-999.25	1462.25	1442.12	399530	85600.7
1463.57	-999.25	-999.25	-999.25	-999.25	-999.25	-999.25	-999.25	-999.25	-999.25	1463.56	1443.29	399533	85600
1464.87	-999.25	-999.25	-999.25	-999.25	-999.25	-999.25	-999.25	-999.25	-999.25	1464.86	1444.42	399533.25	85599.5
1466.17	-999.25	-999.25	-999.25	-999.25	-999.25	-999.25	-999.25	-999.25	-999.25	1466.16	1445.56	399534	85599.1
1467.47	-999.25	-999.25	-999.25	-999.25	-999.25	-999.25	-999.25	-999.25	-999.25	1467.46	1446.69	399534	85598.6
1468.77	-999.25	-999.25	-999.25	-999.25	-999.25	-999.25	-999.25	-999.25	-999.25	1468.76	1447.83	399534.875	85598.1
1470.07	-999.25	-999.25	-999.25	-999.25	-999.25	-999.25	-999.25	-999.25	-999.25	1470.06	1448.96	399535	85597.7
1471.37	-999.25	-999.25	-999.25	-999.25	-999.25	-999.25	-999.25	-999.25	-999.25	1471.36	1450.1	399536	85597.2
1472.67	-999.25	-999.25	-999.25	-999.25	-999.25	-999.25	-999.25	-999.25	-999.25	1472.66	1451.23	399536	85596.7
1473.97	-999.25	-999.25	-999.25	-999.25	-999.25	-999.25	-999.25	-999.25	-999.25	1473.96	1452.37	399537	85596.3
1475.27	-999.25	-999.25	-999.25	-999.25	-999.25	-999.25	-999.25	-999.25	-999.25	1475.27	1453.5	399538	85595.8
1476.57	-999.25	-999.25	-999.25	-999.25	-999.25	-999.25	-999.25	-999.25	-999.25	1476.57	1454.64	399538	85595.3
1477.87	-999.25	-999.25	-999.25	-999.25	-999.25	-999.25	-999.25	-999.25	-999.25	1477.87	1455.77	399539	85594.9
1479.17	-999.25	-999.25	-999.25	-999.25	-999.25	-999.25	-999.25	-999.25	-999.25	1479.17	1456.91	399539.125	85594.4
1480.47	-999.25	-999.25	-999.25	-999.25	-999.25	-999.25	-999.25	-999.25	-999.25	1480.47	1458.04	399540	85593.9
1481.77	-999.25	-999.25	-999.25	-999.25	-999.25	-999.25	-999.25	-999.25	-999.25	1481.77	1459.18	399540	85593.5
1483.07	-999.25	-999.25	-999.25	-999.25	-999.25	-999.25	-999.25	-999.25	-999.25	1483.07	1460.31	399541	85593
1484.37	-999.25	-999.25	-999.25	-999.25	-999.25	-999.25	-999.25	-999.25	-999.25	1484.37	1461.45	399541.25	85592.5
1485.67	-999.25	-999.25	-999.25	-999.25	-999.25	-999.25	-999.25	-999.25	-999.25	1485.67	1462.58	399542	85592.1
1486.97	-999.25	-999.25	-999.25	-999.25	-999.25	-999.25	-999.25	-999.25	-999.25	1486.97	1463.72	399542	85591.6
1488.27	-999.25	-999.25	-999.25	-999.25	-999.25	-999.25	-999.25	-999.25	-999.25	1488.27	1464.85	399543	85591.1
1489.57	-999.25	-999.25	-999.25	-999.25	-999.25	-999.25	-999.25	-999.25	-999.25	1489.57	1465.99	399543	85590.7
1490.87	-999.25	-999.25	-999.25	-999.25	-999.25	-999.25	-999.25	-999.25	-999.25	1490.87	1467.12	399544	85590.2
1492.17	-999.25	-999.25	-999.25	-999.25	-999.25	-999.25	-999.25	-999.25	-999.25	1492.17	1468.26	399544	85589.7
1493.47	-999.25	-999.25	-999.25	-999.25	-999.25	-999.25	-999.25	-999.25	-999.25	1493.48	1469.38	399542	85589
1494.77	-999.25	-999.25	-999.25	-999.25	-999.25	-999.25	-999.25	-999.25	-999.25	1494.78	1470.51	399542.625	85588.4
1496.07	-999.25	-999.25	-999.25	-999.25	-999.25	-999.25	-999.25	-999.25	-999.25	1496.08	1471.64	399543	85588
1497.37	-999.25	-999.25	-999.25	-999.25	-999.25	-999.25	-999.25	-999.25	-999.25	1497.38	1472.77	399544	85587.5
1498.67	-999.25	-999.25	-999.25	-999.25	-999.25	-999.25	-999.25	-999.25	-999.25	1498.68	1473.9	399544	85587
1499.97	-999.25	-999.25	-999.25	-999.25	-999.25	-999.25	-999.25	-999.25	-999.25	1499.98	1475.03	399544.75	85586.6
1501.27	-999.25	-999.25	-999.25	-999.25	-999.25	-999.25	-999.25	-999.25	-999.25	1501.28	1476.16	399545	85586.1
1502.57	-999.25	-999.25	-999.25	-999.25	-999.25	-999.25	-999.25	-999.25	-999.25	1502.58	1477.29	399546	85585.6
1503.87	-999.25	-999.25	-999.25	-999.25	-999.25	-999.25	-999.25	-999.25	-999.25	1503.88	1478.42	399546	85585.2
1505.17	-999.25	-999.25	-999.25	-999.25	-999.25	-999.25	-999.25	-999.25	-999.25	1505.19	1479.55	399546.875	85584.7
1506.47	-999.25	-999.25	-999.25	-999.25	-999.25	-999.25	-999.25	-999.25	-999.25	1506.49	1480.68	399547	85584.2
1507.77	-999.25	-999.25	-999.25	-999.25	-999.25	-999.25	-999.25	-999.25	-999.25	1507.79	1481.81	399548	85583.8
1509.07	-999.25	-999.25	-999.25	-999.25	-999.25	-999.25	-999.25	-999.25	-999.25	1509.09	1482.94	399548	85583.3
1510.37	-999.25	-999.25	-999.25	-999.25	-999.25	-999.25	-999.25	-999.25	-999.25	1510.39	1484.07	399549	85582.8
1511.67	-999.25	-999.25	-999.25	-999.25	-999.25	-999.25	-999.25	-999.25	-999.25	1511.69	1485.2	399550	85582.375
1512.97	-999.25	-999.25	-999.25	-999.25	-999.25	-999.25	-999.25	-999.25	-999.25	1512.99	1486.33	399550	85581.9
1514.27	-999.25	-999.25	-999.25	-999.25	-999.25	-999.25	-999.25	-999.25	-999.25	1514.29	1487.46	399550.625	85581.4
1515.57	-999.25	-999.25	-999.25	-999.25	-999.25	-999.25	-999.25	-999.25	-999.25	1515.59	1488.59	399551	85581
1516.87	-999.25	-999.25	-999.25	-999.25	-999.25	-999.25	-999.25	-999.25	-999.25	1516.89	1489.72	399552	85580.5
1518.17	-999.25	-999.25	-999.25	-999.25	-999.25	-999.25	-999.25	-999.25	-999.25	1518.19	1490.85	399552	85580
1519.47	-999.25	-999.25	-999.25	-999.25	-999.25	-999.25	-999.25	-999.25	-999.25	1519.49	1491.98	399552.75	85579.6
1520.77	-999.25	-999.25	-999.25	-999.25	-999.25	-999.25	-999.25	-999.25	-999.25	1520.79	1493.11	399553	85579.1
1522.07	-999.25	-999.25	-999.25	-999.25	-999.25	-999.25	-999.25	-999.25	-999.25	1522.09	1494.24	399554	85578.6
1523.37	-999.25	-999.25	-999.25	-999.25	-999.25	-999.25	-999.25	-999.25	-999.25	1523.39	1495.37	399554	85578.2
1524.67	-999.25	-999.25	-999.25	-999.25	-999.25	-999.25	-999.25	-999.25	-999.25	1524.7	1496.51	399552.375	85577.5
1525.97	-999.25	-999.25	-999.25	-999.25	-999.25	-999.25	-999.25	-999.25	-999.25	1526	1497.65	399553	85577
1527.27	-999.25	-999.25	-999.25	-999.25	-999.25	-999.25	-999.25	-999.25	-999.25	1527.3	1498.78	399553	85576.5
1528.57	-999.25	-999.25	-999.25	-999.25	-999.25	-999.25	-999.25	-999.25	-999.25	1528.6	1499.92	399554	85576.1
1529.87	-999.25	-999.25	-999.25	-999.25	-999.25	-999.25	-999.25	-999.25	-999.25	1529.9	1501.05	399554.5	85575.6
1531.17	-999.25	-999.25	-999.25	-999.25	-999.25	-999.25	-999.25	-999.25	-999.25	1531.2	1502.19	399555	85575.1
1532.47	-999.25	-999.25	-999.25	-999.25	-999.25	-999.25	-999.25	-999.25	-999.25	1532.5	1503.32	399556	85574.7
1533.77	-999.25	-999.25	-999.25	-999.25	-999.25	-999.25	-999.25	-999.25	-999.25	1533.8	1504.46	399556.125	85574.2
1535.07	-999.25	-999.25	-999.25	-999.25	-999.25	-999.25	-999.25	-999.25	-999.25	1535.1	1505.59	399557	85573.7
1536.37	-999.25	-999.25	-999.25	-999.25	-999.25	-999.25	-999.25	-999.25	-999.25	1536.41	1506.73	399557	85573.25
1537.67	-999.25	-999.25	-999.25	-999.25	-999.25	-999.25	-999.25	-999.25	-999.25	1537.71	1507.86	399558	85572.8
1538.97	-999.25	-999.25	-999.25	-999.25	-999.25	-999.25	-999.25	-999.25	-999.25	1539.01	1509	399558.25	85572.3
1540.27	-999.25	-999.25	-999.25	-999.25	-999.25	-999.25	-999.25	-999.25	-999.25	1540.31	1510.13	399559	85571.9
1541.57	-999.25	-999.25	-999.25	-999.25	-999.25	-999.25	-999.25	-999.25	-999.25	1541.61	1511.27	399559	85571.4
1542.87	-999.25	-999.25	-999.25	-999.25	-999.25	-999.25	-999.25	-999.25	-999.25	1542.91	1512.4	399560	85570.9
1544.17	-999.25	-999.25	-999.25	-999.25	-999.25	-999.25	-999.25	-999.25	-999.25	1544.21	1513.54	399560.375	85570.5
1545.47	-999.25	-999.25	-999.25	-999.25	-999.25	-999.25	-999.25	-999.25	-999.25	1545.51	1514.67	399561	85570
1546.77	-999.25	-999.25	-999.25	-999.25	-999.25	-999.25	-999.25	-999.25	-999.25	1546.81	1515.81	399561	85569.5
1548.07	-999.25	-999.25	-999.25	-999.25	-999.25	-999.25	-999.25	-999.25	-999.25	1548.11	1516.94	399562	85569.1
1549.37	-999.25	-999.25	-999.25	-999.25	-999.25	-999.25	-999.25	-999.25	-999.25	1549.41	1518.08	399562.5	85568.6
1550.67	-999.25	-999.25	-999.25	-999.25	-999.25	-999.25	-999.25	-999.25	-999.25	1550.71	1519.21	399563	85568.125
1551.97	-999.25	-999.25	-999.25	-999.25	-999.25	-999.25	-999.25	-999.25	-999.25	1552.01	1520.35	399564	85567.7
1553.27	-999.25	-999.25	-999.25	-999.25	-999.25	-999.25	-999.25	-999.25	-999.25	1553.31	1521.48	399564.125	85567.2
1554.57	9.99863	-999.25	-999.25	-999.25	-999.25	-999.25	-999.25	-999.25	-33.3386	1554.62	1522.6	399562.125	85566.6
1555.87	10.044	75.6962	166.875	2.84679	2.86929	2.5848	0.234782	2.55295	-32.3162	1555.91	1523.74	399562.375	85566.1
1557.17	10.0616	79.1128	173.878	2.59352	2.57333	2.10967	0.20795	2.54844	-32.3098	1557.21	1524.88	399563	85565.625
1558.47	10.0863	75.6786	169.05	2.95189	3.01898	2.73666	0.200238	2.5225	-32.0665	1558.5	1526.02	399563	85565.2
1559.77	10.0782	77.1491	171.651	2.68173	2.71523	2.95082	0.185419	2.54107	-32.4992	1559.8	1527.15	399563	85564.7
1561.07	10.107	82.1158	190.708	2.38475	2.44115	2.2799	0.231943	2.52598	-32.8262	1561.09	1528.29	399563	85564.2
1562.37	10.1105	77.4925	171.677	2.96967	3.06256	3.24694	0.215878	2.58693	-33.2644	1562.39	1529.43	399564	85563.8
1563.67	10.1685	76.2889	174.439	3.04205	3.14705	2.69049	0.207009	2.55759	-33.177	1563.68	1530.56	399564	85563.3
1564.97	10.185	83.7412	182.839	2.25244	2.32935	1.96851	0.252732	2.55982	-35.0745	1564.97	1531.7	399564.25	85562.8
1566.27	10.1927	79.7153	171.72	2.56678	2.70124	2.55678	0.229157	2.53487	-36.9351	1566.27	1532.84	399565	85562.4
1567.57	10.2322	75.4237	171.365	3.19229	3.24561	3.02976	0.207264	2.56811	-37.1442	1567.56	1533.98	399565	85561.9
1568.87	10.2763	81.5869	182.55	2.65985	2.66035	2.45051	0.231291	2.53564	-37.2781	1568.86	1535.11	399565	85561.4
1570.17	10.2879	75.9252	171.594	2.95575	3.07761	2.82511	0.183077	2.53214	-35.3317	1570.15	1536.25	399565	85561
1571.47	10.283	76.597	169.381	2.90249	2.97712	2.61299	0.202094	2.5403	-34.1104	1571.45	1537.39	399566	85560.5
1572.77	10.3256	80.2164	174.576	2.72006	2.70971	2.54571	0.224067	2.53016	-33.7492	1572.74	1538.52	399566	85560
1574.07	10.3384	76.3056	169.13	3.16137	3.21585	2.949	0.162344	2.54537	-33.3607	1574.03	1539.66	399566.125	85559.6
1575.37	10.3297	77.4022	177.591	3.08241	3.1056	2.86362	0.238645	2.5405	-32.754	1575.33	1540.8	399566.375	85559.1
1576.67	10.326	79.5367	184.511	2.72353	2.79731	2.3419	0.272535	2.5335	-32.4829	1576.62	1541.94	399567	85558.625
1577.97	10.3166	80.0239	222.605	2.83157	2.83864	2.38429	0.188713	2.56053	-32.0226	1577.92	1543.07	399567	85558.2
1579.27	10.3826	78.4347	180.431	3.21677	3.33904	3.05223	0.200993	2.53729	-32.7135	1579.21	1544.21	399567	85557.7
1580.57	10.4172	74.2561	183.471	3.05062	3.06804	2.65374	0.160151	2.54466	-32.9075	1580.51	1545.35	399567	85557.2
1581.87	10.42	76.0305	173.89	3.15765	3.27103	2.83203	0.162035	2.55507	-32.4856	1581.8	1546.48	399568	85556.8
1583.17	10.4235	77.6656	190.15	3.18721	3.27464	3.33763	0.190264	2.56391	-33.333	1583.09	1547.62	399568	85556.3
1584.47	10.41	75.9257	165.989	3.02353	3.04154	2.66635	0.15163	2.56854	-34.8132	1584.39	1548.76	399568.25	85555.8
1585.77	10.4426	74.3407	180.24	2.86484	2.93997	4.30336	0.153395	2.50237	-34.2718	1585.69	1549.91	399571.25	85555
1587.07	10.4399	76.6163	188.843	3.1466	3.2376	3.89846	0.143264	2.51283	-34.7225	1586.99	1551.06	399571.5	85554.5
1588.37	10.4011	78.3797	204.946	3.04343	3.11122	4.04148	0.193417	2.51298	-35.2366	1588.29	1552.2	399572	85554
1589.67	10.3056	76.8864	190.304	3.0037	3.08735	3.6999	0.229683	2.52755	-36.6825	1589.6	1553.35	399572	85553.6
1590.97	10.1894	76.0462	187.958	2.90304	3.02796	3.72564	0.145767	2.5114	-36.3862	1590.9	1554.5	399572	85553.1
1592.27	9.99221	78.8962	217.924	2.88349	2.92982	2.98473	0.236383	2.54209	-36.3856	1592.2	1555.65	399573	85552.625
1593.57	9.86141	78.3367	179.798	3.45486	3.4935	3.62549	0.167085	2.53874	-35.6977	1593.5	1556.8	399573	85552.2
1594.87	9.54452	78.5473	171.269	3.29124	3.32209	2.81408	0.180894	2.49824	-35.3565	1594.81	1557.95	399573	85551.7
1596.17	9.45185	74.75	152.96	6.14914	6.58597	3.90065	0.152178	2.51693	-36.6958	1596.11	1559.1	399573.375	85551.2
1597.47	9.11109	72.4499	160.625	5.54166	5.45336	3.4435	0.177091	2.53806	-37.2482	1597.41	1560.24	399573.625	85550.8
1598.77	8.97765	69.7349	144.033	7.9574	5.89927	1.48698	0.123887	2.56774	-37.6691	1598.72	1561.39	399574	85550.3
1600.07	8.7423	76.999	186.004	4.77254	3.9536	1.56896	0.180829	2.41009	-37.1201	1600.02	1562.54	399574	85549.8
1601.37	8.7251	82.4237	169.817	5.16057	4.71664	3.1889	0.213379	2.40631	-37.8709	1601.32	1563.69	399574	85549.4
1602.67	8.81385	73.9557	163.864	12.4898	9.14289	10.2845	0.202131	2.45453	-37.3267	1602.62	1564.84	399575	85548.9
1603.97	8.73053	70.1474	146.474	6.32323	5.8092	1.31725	0.116353	2.46822	-38.5726	1603.93	1565.99	399575	85548.4
1605.27	8.68768	82.5328	191.145	4.5006	4.11109	2.17942	0.206724	2.3381	-39.7629	1605.23	1567.14	399575	85548
1606.57	8.71818	80.6876	183.879	6.8762	5.83204	1.96676	0.252478	2.48637	-39.2561	1606.53	1568.28	399575.5	85547.5
1607.87	8.63955	80.7689	180.527	4.50524	3.90317	1.92002	0.178773	2.43557	-39.2041	1607.83	1569.43	399576	85547
1609.17	8.76441	84.7345	188.299	3.77849	2.89748	2.3607	0.205406	2.44351	-37.8759	1609.14	1570.58	399576	85546.6
1610.47	8.7188	79.5286	190.993	4.60404	2.75454	2.29627	0.217829	2.34903	-41.8107	1610.44	1571.73	399576	85546.1
1611.77	8.77789	78.1402	154.889	7.42321	4.66251	1.05624	0.241392	2.56031	-40.8012	1611.74	1572.88	399577	85545.625
1613.07	8.57971	84.4357	162.788	5.53862	3.82598	0.881082	0.21235	2.29254	-39.124	1613.04	1574.03	399577	85545.2
1614.37	8.539	85.509	158.548	4.56697	3.38149	2.43221	0.221298	2.27627	-38.859	1614.35	1575.18	399577	85544.7
1615.67	8.539	77.6904	169.701	4.15501	2.68725	2.8392	0.171489	2.39133	-40.2253	1615.66	1576.33	399580	85543.7
1616.97	8.57678	73.4314	172.345	3.68433	2.46472	1.12314	0.182509	2.49892	-40.7936	1616.96	1577.46	399580	85543.2
1618.27	8.48755	80.7612	180.241	4.61136	3.23996	2.16588	0.201325	2.32623	-40.0663	1618.26	1578.6	399581	85542.625
1619.57	8.50597	82.1568	174.493	4.36151	3.36832	1.4604	0.188784	2.40562	-39.5875	1619.56	1579.73	399581	85542.1
1620.87	8.477	74.5413	158.691	6.6131	5.36939	1.60548	0.196191	2.37978	-38.9944	1620.86	1580.87	399581	85541.6
1622.17	8.477	82.7548	175.192	4.61895	4.13497	1.55636	0.212069	2.35915	-39.9361	1622.16	1582	399581	85541
1623.47	8.48606	80.2365	196.522	4.01086	3.65606	1.09664	0.21421	2.40479	-38.8483	1623.46	1583.14	399581.75	85540.5
1624.77	8.43541	78.2019	176.448	22.9957	17.8993	0.962899	0.263732	2.34393	-40.3138	1624.76	1584.27	399582	85540
1626.07	8.43397	95.9885	138.138	7.43807	7.43955	1.3466	0.226034	2.28885	-40.7791	1626.06	1585.41	399582	85539.4
1627.37	8.44238	81.9057	151.807	11.7181	8.54856	1.26677	0.19607	2.41688	-39.4619	1627.37	1586.54	399583	85538.9
1628.67	8.44156	87.5043	161.769	4.74531	3.68285	2.70781	0.222574	2.29251	-40.6886	1628.67	1587.68	399583	85538.4
1629.97	8.55977	81.788	172.39	3.04221	2.06048	1.31864	0.199345	2.47917	-40.7432	1629.97	1588.81	399583	85537.8
1631.27	8.51935	78.0235	182.247	3.14434	2.09456	1.39843	0.202718	2.35587	-38.9237	1631.27	1589.95	399583	85537.3
1632.57	8.52392	80.2743	177.947	4.12866	2.95777	2.23411	0.196899	2.45216	-38.9435	1632.57	1591.08	399583.625	85536.8
1633.87	8.50135	73.9966	160.98	4.94147	3.72631	0.790124	0.189749	2.37415	-37.8243	1633.87	1592.22	399583.875	85536.2
1635.17	8.46373	91.7597	159.238	4.00771	2.996	2.17267	0.250703	2.23229	-40.1668	1635.17	1593.35	399584	85535.7
1636.47	8.5229	80.8901	188.663	3.33773	2.47015	1.65126	0.183679	2.46341	-38.8473	1636.47	1594.49	399584	85535.2
1637.77	8.48038	78.2485	203.192	3.08376	2.39986	1.55585	0.21995	2.40017	-39.8397	1637.77	1595.62	399585	85534.625
1639.07	8.4776	79.5588	177.999	2.90689	2.47933	1.89504	0.204451	2.42917	-40.061	1639.07	1596.76	399585	85534.1
1640.37	8.46091	80.8218	128.708	7.8034	6.66142	1.08531	0.249856	2.34721	-40.7456	1640.37	1597.89	399585	85533.6
1641.67	8.461	86.388	181.915	3.21419	2.77966	1.82802	0.206854	2.44307	-40.7414	1641.67	1599.03	399585	85533
1642.97	8.47288	78.3865	180.051	2.49175	2.08841	1.542	0.199824	2.45984	-40.6115	1642.97	1600.16	399585.75	85532.5
1644.27	8.45326	79.6737	142.049	3.99006	3.15257	0.806113	0.230787	2.36522	-39.5712	1644.27	1601.3	399586	85532
1645.57	8.44194	76.9289	162.739	3.27195	2.9257	1.67362	0.191191	2.46447	-41.1982	1645.57	1602.43	399586	85531.4
1646.87	8.461	85.5209	134.397	3.77567	3.02778	0.813063	0.254417	2.26908	-40.0287	1646.88	1603.56	399589	85531.6
1648.17	8.461	83.8801	148.097	3.61895	2.92761	0.764433	0.229789	2.28745	-38.862	1648.18	1604.7	399589	85531.1
1649.47	8.445	88.9907	153.793	3.08267	2.86589	0.922389	0.245789	2.30932	-38.2693	1649.48	1605.84	399590	85530.5
1650.77	8.45139	90.2646	190.471	2.53579	2.17643	1.15261	0.245501	2.27313	-38.9451	1650.78	1606.98	399590	85530
1652.07	8.50725	78.0355	186.29	3.52794	3.06027	2.60577	0.210718	2.51996	-39.3537	1652.08	1608.12	399590	85529.5
1653.37	8.45934	89.9844	140.326	2.88133	2.41183	0.711956	0.216925	2.30087	-40.2848	1653.38	1609.25	399591	85528.9
1654.67	8.44935	83.6853	163.15	2.64045	2.38731	1.29786	0.190312	2.34555	-41.5384	1654.68	1610.39	399591	85528.4
1655.97	8.45275	84.2104	176.728	1.98179	1.84205	0.831358	0.226524	2.33362	-40.6863	1655.98	1611.53	399591	85527.9
1657.27	8.44698	84.2553	111.991	2.02223	1.84126	0.792855	0.209561	2.29719	-42.6316	1657.28	1612.67	399591	85527.3
1658.57	8.45181	89.4636	138.067	2.29322	2.17801	0.873981	0.216646	2.26925	-39.6826	1658.59	1613.81	399592	85526.8
1659.87	8.44797	81.0443	176.656	1.60172	1.39608	0.756148	0.1845	2.33774	-40.7806	1659.89	1614.95	399591.875	85526.3
1661.17	8.47171	76.8822	163.892	1.89865	1.482795	1.1462	0.173186	2.34828	-39.3256	1661.19	1616.09	399592.125	85525.7
1662.47	8.46554	95.3897	163.916	1.34735	0.969704	0.623832	0.256872	2.16435	-38.6665	1662.49	1617.23	399592	85525.2
1663.77	8.477	91.9694	146.273	0.659723	0.507885	0.364476	0.259543	2.23898	-36.7552	1663.79	1618.37	399593	85524.7
1665.07	8.477	89.1897	172.374	0.905368	0.755897	0.522848	0.235474	2.25341	-36.7381	1665.09	1619.51	399593	85524.1
1666.37	8.477	76.9425	131.629	0.680896	0.568396	0.478074	0.248161	2.29116	-36.9327	1666.39	1620.65	399593	85523.6
1667.67	8.49418	87.8074	204.233	1.92393	1.20877	1.86392	0.16847	2.39126	-37.1301	1667.69	1621.79	399593	85523.1
1668.97	8.49808	70.8795	124.093	0.922908	0.86782	0.914373	0.205617	2.33219	-37.1023	1668.99	1622.92	399594	85522.5
1670.27	8.477	81.1947	155.583	0.803722	0.704973	0.702083	0.212805	2.3052	-38.2642	1670.29	1624.06	399594	85522
1671.57	8.492	80.5129	160.691	0.903174	0.673931	0.572332	0.213066	2.31782	-39.3162	1671.59	1625.2	399594	85521.5
1672.87	8.492	82.9572	130.238	0.71438	0.560028	0.53166	0.217484	2.32577	-41.709	1672.89	1626.34	399595	85520.9
1674.17	8.49306	80.6775	132.009	0.846263	0.726071	0.8376863	0.207381	2.32729	-42.1139	1674.19	1627.48	399595	85520.4
1675.47	8.524	71.0802	155.381	1.66106	1.5264	2.98957	0.15478	2.48198	-47.877	1675.49	1628.62	399595	85519.9
1676.77	8.48868	76.1619	154.298	1.15138	1.36842	1.15085	0.156585	2.38357	-46.3788	1676.8	1629.75	399598	85520.1
1678.07	8.477	78.363	135.787	0.852816	0.748008	0.620159	0.181162	2.35398	-45.5842	1678.1	1630.9	399598	85519.6
1679.37	8.477	85.0722	120.385	0.528383	0.438	0.329607	0.24904	2.25356	-44.9722	1679.4	1632.04	399598	85519.125
1680.67	8.50981	75.1013	141.497	1.16763	1.03158	1.01102	0.152457	2.38179	-41.2154	1680.7	1633.18	399599	85518.7
1681.97	8.53788	78.6144	133.789	1.06398	0.921393	0.810595	0.189913	2.36221	-44.7484	1682	1634.33	399599	85518.2
1683.27	8.53649	78.0817	160.464	1.01117	0.931332	1.09413	0.184628	2.32976	-41.6242	1683.3	1635.47	399599	85517.7
1684.57	8.56452	82.0031	169.372	0.877197	0.827195	0.631708	0.205828	2.31636	-40.5616	1684.6	1636.61	399599.5	85517.3
1685.87	8.618	77.482	151.141	1.14879	1.11977	1.23599	0.179905	2.4363	-40.7299	1685.9	1637.76	399599.75	85516.8
1687.17	8.618	76.1592	166.94	1.23749	1.20936	1.28236	0.165543	2.38204	-43.6754	1687.2	1638.9	399600	85516.3
1688.47	8.60363	83.0634	144.758	0.63861	0.606966	0.479371	0.215564	2.28388	-42.4726	1688.51	1640.04	399600	85515.9
1689.77	8.61162	77.3759	171.019	1.31752	1.11986	1.22533	0.171845	2.35591	-43.5478	1689.81	1641.19	399601	85515.4
1691.07	8.602	82.8054	151.887	0.717676	0.667527	0.589669	0.21172	2.29703	-42.6214	1691.11	1642.33	399601	85514.9
1692.37	8.61758	89.8503	140.284	0.482575	0.343851	0.243101	0.278206	2.23173	-46.7959	1692.41	1643.47	399601	85514.5
1693.67	8.62693	90.5112	134.024	0.491433	0.311155	0.25912	0.253772	2.22994	-47.0654	1693.71	1644.62	399601.375	85514
1694.97	8.618	92.2234	171.258	0.450317	0.317621	0.239651	0.280251	2.20071	-46.3721	1695.01	1645.76	399601.625	85513.5
1696.27	8.618	86.5347	181.553	0.471548	0.466834	0.314135	0.242041	2.25422	-47.1175	1696.31	1646.9	399602	85513.1
1697.57	8.62063	78.7145	157.174	0.896306	0.754939	0.704868	0.193296	2.33945	-49.91	1697.61	1648.05	399602	85512.6
1698.87	8.65839	77.9725	153.662	0.790057	0.746747	0.576426	0.181435	2.34124	-41.507	1698.91	1649.19	399602	85512.1
1700.17	8.68475	74.1972	126.791	0.888274	0.818021	1.03186	0.147081	2.41952	-43.3319	1700.21	1650.33	399603	85511.7
1701.47	8.73904	75.6104	159.111	1.18736	1.15479	1.3049	0.19411	2.37557	-45.8801	1701.51	1651.48	399603	85511.2
1702.77	8.70673	75.5413	151.005	1.23983	1.2775	1.50323	0.158117	2.41375	-47.0499	1702.81	1652.62	399603	85510.7
1704.07	8.70929	65.8105	146.837	2.38689	1.90334	1.69447	0.154362	2.54963	-47.204	1704.11	1653.76	399603.5	85510.3
1705.37	8.67024	76.7616	131.15	1.09519	1.08857	1.51697	0.167642	2.4287	-48.3981	1705.41	1654.91	399603.75	85509.8
1706.67	8.6613	82.8342	106.571	0.612283	0.516638	0.362866	0.220379	2.30178	-49.117	1706.71	1656.05	399604	85509.3
1707.97	8.65596	75.2569	112.815	0.787318	0.69093	0.550418	0.18773	2.38937	-49.7899	1708.02	1657.18	399607	85508.3
1709.27	8.665	80.1752	135.735	1.10857	0.867497	0.782509	0.189208	2.39931	-48.9328	1709.31	1658.32	399607	85507.8
1710.57	8.76265	67.99	105.884	1.44126	1.41968	1.06096	0.114244	2.47713	-48.8273	1710.6	1659.47	399607	85507.3
1711.87	8.72935	71.5876	118.677	1.53422	1.46179	0.970995	0.119572	2.43299	-48.3662	1711.9	1660.61	399608	85506.7
1713.17	8.7623	69.4609	123.958	2.17348	2.31503	2.28738	0.114468	2.48361	-48.4904	1713.19	1661.75	399608	85506.2
1714.47	8.729	70.599	114.403	1.8641	1.8843	1.6954	0.1186	2.4513	-50.94	1714.49	1662.89	399608.25	85505.7
1715.77	8.713	71.9551	119.053	1.47505	1.48671	1.43514	0.126456	2.44752	-51.3862	1715.78	1664.03	399609	85505.1
1717.07	8.70016	76.8832	135.623	1.27395	1.26458	1.01915	0.166094	2.40137	-50.3951	1717.08	1665.17	399609	85504.6
1718.37	8.69833	76.2719	123.012	0.925175	0.912242	0.700525	0.159091	2.39441	-47.7399	1718.37	1666.31	399609	85504.1
1719.67	8.70956	79.1665	103.657	0.861283	0.836723	0.851037	0.179718	2.38577	-43.6815	1719.66	1667.45	399609	85503.5
1720.97	8.71393	77.0987	156.401	1.00591	0.914252	1.18561	0.179465	2.37924	-46.8014	1720.96	1668.6	399610	85503
1722.27	8.714	80.3811	145.038	0.90201	0.799314	0.650715	0.204813	2.37641	-45.4424	1722.25	1669.74	399610	85502.5
1723.57	8.71407	84.6186	143.095	0.637181	0.626543	0.421305	0.233622	2.29969	-49.3304	1723.55	1670.88	399610.125	85501.9
1724.87	8.74161	79.3978	161.235	0.950705	0.98129	1.07153	0.197476	2.39982	-44.8239	1724.84	1672.02	399610.375	85501.4
1726.17	9.13564	73.5676	155.051	3.472	3.68226	2.61617	0.194271	2.58643	-45.0748	1726.14	1673.16	399611	85500.875
1727.47	8.74806	82.3955	94.9597	0.98558	0.832958	0.64818	0.190504	2.352	-44.0942	1727.43	1674.3	399611	85500.3
1728.77	8.81072	75.2111	120.194	2.8176	2.29419	2.96545	0.188324	2.56068	-48.7857	1728.72	1675.44	399611	85499.8
1730.07	8.6906	81.5586	89.7142	0.720991	0.689927	0.514961	0.20307	2.33522	-46.0996	1730.02	1676.58	399611	85499.3
1731.37	8.99649	72.3108	106.575	1.55324	1.39049	1.40073	0.123257	2.54175	-42.2745	1731.31	1677.73	399612	85498.7
1732.67	9.13686	71.868	129.467	2.70682	2.57366	2.21027	0.138486	2.59175	-45.1866	1732.61	1678.87	399612	85498.2
1733.97	9.14966	68.423	130.005	2.83284	2.80651	3.49523	0.0945142	2.48516	-46.727	1733.9	1680.01	399612.25	85497.7
1735.27	8.85851	70.8955	132.918	1.78523	1.60434	1.95945	0.12856	2.46672	-48.0221	1735.2	1681.15	399612.5	85497.1
1736.57	8.655	79.4432	121.615	0.843796	0.723249	0.491515	0.168499	2.38556	-43.2476	1736.49	1682.29	399613	85496.6
1737.87	8.655	82.534	110.849	0.439255	0.448587	0.293387	0.22375	2.29978	-42.4716	1737.79	1683.44	399615	85496.8
1739.17	8.71082	80.1978	140.864	0.782324	0.560149	0.900391	0.17252	2.34421	-45.0697	1739.09	1684.6	399615	85496.3
1740.47	9.14588	74.759	130.171	1.54504	1.21912	1.41156	0.168364	2.45692	-44.6241	1740.39	1685.75	399616	85495.8
1741.77	8.6967	81.0078	105.977	0.744125	0.694831	0.587751	0.193327	2.32483	-41.3159	1741.7	1686.9	399616	85495.2
1743.07	8.703	80.5905	119.219	0.713261	0.690454	0.429059	0.175432	2.33409	-45.3345	1743	1688.05	399616.25	85494.7
1744.37	8.96052	71.536	129.453	1.87901	1.85729	1.9293	0.145974	2.45407	-43.1823	1744.3	1689.21	399616.5	85494.2
1745.67	8.74677	76.7918	125.257	0.87234	0.812565	0.658745	0.196048	2.36283	-45.1944	1745.6	1690.36	399617	85493.6
1746.97	8.63099	80.0373	89.7177	0.607564	0.565264	0.455249	0.190098	2.35413	-45.8218	1746.91	1691.51	399617	85493.1
1748.27	8.64239	81.3611	102.347	0.524374	0.481396	0.359906	0.195816	2.32235	-48.4512	1748.21	1692.67	399617	85492.6
1749.57	9.013	70.1125	119.04	2.25829	2.23002	3.87887	0.158364	2.50371	-47.3829	1749.51	1693.82	399618	85492
1750.87	8.7099	76.8657	127.566	1.23524	1.31983	1.23763	0.153113	2.39448	-47.7887	1750.81	1694.97	399618	85491.5
1752.17	8.95494	71.7419	118.846	2.15126	2.10782	1.82369	0.134401	2.45031	-48.8302	1752.12	1696.12	399618	85491
1753.47	8.58496	79.6174	93.4323	0.8278	0.820102	0.483988	0.19285	2.3476	-46.5172	1753.42	1697.28	399618.375	85490.4
1754.77	9.07378	72.1434	130.967	2.60943	2.61478	2.89429	0.128935	2.51773	-49.4732	1754.72	1698.43	399618.625	85489.9
1756.07	8.71985	71.9106	111.581	1.6058	1.50617	1.11529	0.137717	2.43411	-48.4716	1756.03	1699.58	399619	85489.375
1757.37	8.57734	80.5245	87.6086	0.629617	0.6639449	0.411867	0.180555	2.38815	-45.4159	1757.33	1700.73	399619	85488.8
1758.67	8.72241	77.91	91.9309	0.973614	0.951444	0.724159	0.164639	2.38831	-49.1622	1758.63	1701.89	399619	85488.3
1759.97	8.9564	72.9324	104.162	1.93423	1.59795	2.12612	0.137448	2.50711	-50.1884	1759.93	1703.04	399620	85487.8
1761.27	8.61479	83.003	72.0656	0.645487	0.567067	0.3788701	0.175042	2.3111	-53.9969	1761.24	1704.19	399620	85487.2
1762.57	8.69634	74.7343	100.153	0.989941	1.02724	0.788163	0.153241	2.44023	-51.811	1762.54	1705.34	399620.25	85486.7
1763.87	8.80106	71.5159	84.3295	1.33558	1.39505	0.852211	0.176604	2.50217	-55.081	1763.84	1706.5	399620.5	85486.2
1765.17	8.89916	71.9065	94.3908	1.54357	1.44866	1.97539	0.107664	2.50945	-57.7479	1765.14	1707.65	399621	85485.6
1766.47	8.58885	76.4399	77.5164	0.94298	0.907254	1.11231	0.154113	2.40593	-58.0756	1766.45	1708.8	399621	85485.1
1767.77	8.83562	73.5215	118.446	2.8121	2.80617	2.09536	0.140313	2.51476	-56.5672	1767.75	1709.96	399621	85484.6
1769.07	8.5695	78.0394	90.6639	1.1793	1.00187	0.615615	0.169302	2.41398	-59.3741	-999.25	-999.25	-999.25	-999.25
1770.37	8.61338	75.2046	103.871	0.882335	0.892925	0.476974	0.162401	2.4302	-57.7639	-999.25	-999.25	-999.25	-999.25
1771.67	8.6099	75.7086	115.498	1.31044	1.28215	0.98291	0.210323	2.41885	-64.1162	-999.25	-999.25	-999.25	-999.25
1772.97	8.56795	78.9488	81.5753	0.763178	0.750712	0.408614	0.209457	2.3548	-65.1073	-999.25	-999.25	-999.25	-999.25
1774.27	8.65292	70.1552	97.6014	1.87941	1.76436	2.30568	0.143978	2.46864	-72.1688	-999.25	-999.25	-999.25	-999.25
1775.57	8.56517	75.1392	104.15	1.27076	1.25255	0.814869	0.163547	2.37754	-70.0266	-999.25	-999.25	-999.25	-999.25
1775.87	8.55585	74.9174	112.102	1.24587	1.27058	1.07216	0.165218	2.40004	-68.8687	-999.25	-999.25	-999.25	-999.25