File: VSM data/K1Sresistivity.txt
DEPTH	CALI	CORE_POR	DT	GR	LLD	LLS	MSFL	NPHI	RHOB	CORE_KH	CORE_KV	MD_m	RFT	TVDSS	UTME	UTMN
1219.2	-999.25	-999.25	-999.25	-999.25	-999.25	-999.25	-999.25	-999.25	-999.25	-999.25	-999.25	1219.21	-999.25	1208.53	400940	87050.7
1220.7	-999.25	-999.25	-999.25	-999.25	-999.25	-999.25	-999.25	-999.25	-999.25	-999.25	-999.25	1220.71	-999.25	1210.03	400940	87050.6
1222.2	-999.25	-999.25	-999.25	-999.25	-999.25	-999.25	-999.25	-999.25	-999.25	-999.25	-999.25	1222.21	-999.25	1211.52	400940	87050.6
1223.7	-999.25	-999.25	-999.25	-999.25	-999.25	-999.25	-999.25	-999.25	-999.25	-999.25	-999.25	1223.71	-999.25	1213.02	400940	87050.5
1225.2	-999.25	-999.25	-999.25	-999.25	-999.25	-999.25	-999.25	-999.25	-999.25	-999.25	-999.25	1225.21	-999.25	1214.51	400941	87050.9
1226.7	-999.25	-999.25	-999.25	-999.25	-999.25	-999.25	-999.25	-999.25	-999.25	-999.25	-999.25	1226.71	-999.25	1216.01	400941	87050.9
1228.2	-999.25	-999.25	-999.25	-999.25	-999.25	-999.25	-999.25	-999.25	-999.25	-999.25	-999.25	1228.21	-999.25	1217.51	400941	87050.9
1229.7	-999.25	-999.25	-999.25	-999.25	-999.25	-999.25	-999.25	-999.25	-999.25	-999.25	-999.25	1229.71	-999.25	1219.01	400941	87050.9
1231.2	-999.25	-999.25	-999.25	-999.25	-999.25	-999.25	-999.25	-999.25	-999.25	-999.25	-999.25	1231.21	-999.25	1220.51	400941	87050.9
1232.7	-999.25	-999.25	-999.25	-999.25	-999.25	-999.25	-999.25	-999.25	-999.25	-999.25	-999.25	1232.71	-999.25	1222.01	400941	87050.9
1234.2	-999.25	-999.25	-999.25	-999.25	-999.25	-999.25	-999.25	-999.25	-999.25	-999.25	-999.25	1234.21	-999.25	1223.51	400941	87050.9
1235.7	-999.25	-999.25	-999.25	-999.25	-999.25	-999.25	-999.25	-999.25	-999.25	-999.25	-999.25	1235.71	-999.25	1225.01	400941	87050.9
1237.2	-999.25	-999.25	-999.25	-999.25	-999.25	-999.25	-999.25	-999.25	-999.25	-999.25	-999.25	1237.21	-999.25	1226.51	400941	87050.9
1238.7	-999.25	-999.25	-999.25	-999.25	-999.25	-999.25	-999.25	-999.25	-999.25	-999.25	-999.25	1238.71	-999.25	1228.01	400941	87050.9
1240.2	-999.25	-999.25	-999.25	-999.25	-999.25	-999.25	-999.25	-999.25	-999.25	-999.25	-999.25	1240.22	-999.25	1229.52	400941	87050.9
1241.7	-999.25	-999.25	-999.25	-999.25	-999.25	-999.25	-999.25	-999.25	-999.25	-999.25	-999.25	1241.72	-999.25	1231.02	400941	87050.9
1243.2	-999.25	-999.25	-999.25	-999.25	-999.25	-999.25	-999.25	-999.25	-999.25	-999.25	-999.25	1243.22	-999.25	1232.52	400941	87050.9
1244.7	-999.25	-999.25	-999.25	-999.25	-999.25	-999.25	-999.25	-999.25	-999.25	-999.25	-999.25	1244.72	-999.25	1234.02	400941	87050.9
1246.2	-999.25	-999.25	-999.25	-999.25	-999.25	-999.25	-999.25	-999.25	-999.25	-999.25	-999.25	1246.22	-999.25	1235.52	400941	87050.9
1247.7	-999.25	-999.25	-999.25	-999.25	-999.25	-999.25	-999.25	-999.25	-999.25	-999.25	-999.25	1247.72	-999.25	1237.02	400941	87050.9
1249.2	-999.25	-999.25	-999.25	-999.25	-999.25	-999.25	-999.25	-999.25	-999.25	-999.25	-999.25	1249.22	-999.25	1238.52	400941	87050.9
1250.7	-999.25	-999.25	-999.25	-999.25	-999.25	-999.25	-999.25	-999.25	-999.25	-999.25	-999.25	1250.72	-999.25	1240.02	400941	87050.3
1252.2	-999.25	-999.25	-999.25	-999.25	-999.25	-999.25	-999.25	-999.25	-999.25	-999.25	-999.25	1252.22	-999.25	1241.52	400941	87050.3
1253.7	-999.25	-999.25	-999.25	-999.25	-999.25	-999.25	-999.25	-999.25	-999.25	-999.25	-999.25	1253.72	-999.25	1243.02	400941	87050.3
1255.2	-999.25	-999.25	-999.25	-999.25	-999.25	-999.25	-999.25	-999.25	-999.25	-999.25	-999.25	1255.22	-999.25	1244.52	400941	87050.3
1256.7	-999.25	-999.25	-999.25	-999.25	-999.25	-999.25	-999.25	-999.25	-999.25	-999.25	-999.25	1256.72	-999.25	1246.02	400941	87050.3
1258.2	-999.25	-999.25	-999.25	-999.25	-999.25	-999.25	-999.25	-999.25	-999.25	-999.25	-999.25	1258.22	-999.25	1247.52	400941	87050.3
1259.7	-999.25	-999.25	-999.25	-999.25	-999.25	-999.25	-999.25	-999.25	-999.25	-999.25	-999.25	1259.72	-999.25	1249.02	400941	87050.3
1261.2	-999.25	-999.25	-999.25	-999.25	-999.25	-999.25	-999.25	-999.25	-999.25	-999.25	-999.25	1261.22	-999.25	1250.52	400941	87050.3
1262.7	-999.25	-999.25	-999.25	-999.25	-999.25	-999.25	-999.25	-999.25	-999.25	-999.25	-999.25	1262.72	-999.25	1252.02	400941	87050.3
1264.2	-999.25	-999.25	-999.25	-999.25	-999.25	-999.25	-999.25	-999.25	-999.25	-999.25	-999.25	1264.22	-999.25	1253.52	400941	87050.3
1265.7	-999.25	-999.25	-999.25	-999.25	-999.25	-999.25	-999.25	-999.25	-999.25	-999.25	-999.25	1265.72	-999.25	1255.02	400941	87050.3
1267.2	-999.25	-999.25	-999.25	-999.25	-999.25	-999.25	-999.25	-999.25	-999.25	-999.25	-999.25	1267.22	-999.25	1256.52	400941	87050.3
1268.7	-999.25	-999.25	-999.25	-999.25	-999.25	-999.25	-999.25	-999.25	-999.25	-999.25	-999.25	1268.72	-999.25	1258.02	400941	87050.3
1270.2	-999.25	-999.25	-999.25	-999.25	-999.25	-999.25	-999.25	-999.25	-999.25	-999.25	-999.25	1270.22	-999.25	1259.52	400941	87050.3
1271.7	-999.25	-999.25	-999.25	-999.25	-999.25	-999.25	-999.25	-999.25	-999.25	-999.25	-999.25	1271.72	-999.25	1261.02	400941	87050.3
1273.2	-999.25	-999.25	-999.25	-999.25	-999.25	-999.25	-999.25	-999.25	-999.25	-999.25	-999.25	1273.23	-999.25	1262.53	400941	87050.3
1274.7	-999.25	-999.25	-999.25	-999.25	-999.25	-999.25	-999.25	-999.25	-999.25	-999.25	-999.25	1274.73	-999.25	1264.03	400941	87050.3
1276.2	-999.25	-999.25	-999.25	-999.25	-999.25	-999.25	-999.25	-999.25	-999.25	-999.25	-999.25	1276.22	-999.25	1265.52	400941	87049.7
1277.7	-999.25	-999.25	-999.25	-999.25	-999.25	-999.25	-999.25	-999.25	-999.25	-999.25	-999.25	1277.72	-999.25	1267.02	400941	87049.7
1279.2	-999.25	-999.25	-999.25	-999.25	-999.25	-999.25	-999.25	-999.25	-999.25	-999.25	-999.25	1279.22	-999.25	1268.52	400941	87049.7
1280.7	-999.25	-999.25	-999.25	-999.25	-999.25	-999.25	-999.25	-999.25	-999.25	-999.25	-999.25	1280.72	-999.25	1270.02	400941	87049.7
1282.2	-999.25	-999.25	-999.25	-999.25	-999.25	-999.25	-999.25	-999.25	-999.25	-999.25	-999.25	1282.22	-999.25	1271.52	400941	87049.7
1283.7	-999.25	-999.25	-999.25	-999.25	-999.25	-999.25	-999.25	-999.25	-999.25	-999.25	-999.25	1283.73	-999.25	1273.03	400941	87049.7
1285.2	-999.25	-999.25	-999.25	-999.25	-999.25	-999.25	-999.25	-999.25	-999.25	-999.25	-999.25	1285.23	-999.25	1274.53	400941	87049.7
1286.7	-999.25	-999.25	-999.25	-999.25	-999.25	-999.25	-999.25	-999.25	-999.25	-999.25	-999.25	1286.73	-999.25	1276.03	400941	87049.7
1288.2	-999.25	-999.25	-999.25	-999.25	-999.25	-999.25	-999.25	-999.25	-999.25	-999.25	-999.25	1288.23	-999.25	1277.53	400941	87049.7
1289.7	-999.25	-999.25	-999.25	-999.25	-999.25	-999.25	-999.25	-999.25	-999.25	-999.25	-999.25	1289.73	-999.25	1279.03	400941	87049.7
1291.2	-999.25	-999.25	-999.25	-999.25	-999.25	-999.25	-999.25	-999.25	-999.25	-999.25	-999.25	1291.23	-999.25	1280.53	400941	87049.7
1292.7	-999.25	-999.25	-999.25	-999.25	-999.25	-999.25	-999.25	-999.25	-999.25	-999.25	-999.25	1292.73	-999.25	1282.03	400941	87049.7
1294.2	-999.25	-999.25	-999.25	-999.25	-999.25	-999.25	-999.25	-999.25	-999.25	-999.25	-999.25	1294.23	-999.25	1283.53	400941	87049.7
1295.7	-999.25	-999.25	-999.25	-999.25	-999.25	-999.25	-999.25	-999.25	-999.25	-999.25	-999.25	1295.73	-999.25	1285.03	400941	87049.7
1297.2	-999.25	-999.25	-999.25	-999.25	-999.25	-999.25	-999.25	-999.25	-999.25	-999.25	-999.25	1297.23	-999.25	1286.53	400941	87049.7
1298.7	-999.25	-999.25	-999.25	-999.25	-999.25	-999.25	-999.25	-999.25	-999.25	-999.25	-999.25	1298.73	-999.25	1288.03	400941	87049.7
1300.2	-999.25	-999.25	-999.25	-999.25	-999.25	-999.25	-999.25	-999.25	-999.25	-999.25	-999.25	1300.23	-999.25	1289.53	400942	87049.2
1301.7	-999.25	-999.25	-999.25	-999.25	-999.25	-999.25	-999.25	-999.25	-999.25	-999.25	-999.25	1301.73	-999.25	1291.03	400942	87049.2
1303.2	-999.25	-999.25	-999.25	-999.25	-999.25	-999.25	-999.25	-999.25	-999.25	-999.25	-999.25	1303.23	-999.25	1292.53	400942	87049.2
1304.7	-999.25	-999.25	-999.25	-999.25	-999.25	-999.25	-999.25	-999.25	-999.25	-999.25	-999.25	1304.73	-999.25	1294.03	400942	87049.2
1306.2	-999.25	-999.25	-999.25	-999.25	-999.25	-999.25	-999.25	-999.25	-999.25	-999.25	-999.25	1306.23	-999.25	1295.53	400942	87049.2
1307.7	-999.25	-999.25	-999.25	-999.25	-999.25	-999.25	-999.25	-999.25	-999.25	-999.25	-999.25	1307.73	-999.25	1297.03	400942	87049.2
1309.2	-999.25	-999.25	-999.25	-999.25	-999.25	-999.25	-999.25	-999.25	-999.25	-999.25	-999.25	1309.23	-999.25	1298.53	400942	87049.2
1310.7	-999.25	-999.25	-999.25	-999.25	-999.25	-999.25	-999.25	-999.25	-999.25	-999.25	-999.25	1310.73	-999.25	1300.03	400942	87049.2
1312.2	-999.25	-999.25	-999.25	-999.25	-999.25	-999.25	-999.25	-999.25	-999.25	-999.25	-999.25	1312.23	-999.25	1301.53	400942	87049.2
1313.7	-999.25	-999.25	-999.25	-999.25	-999.25	-999.25	-999.25	-999.25	-999.25	-999.25	-999.25	1313.73	-999.25	1303.03	400942	87049.2
1315.2	-999.25	-999.25	-999.25	-999.25	-999.25	-999.25	-999.25	-999.25	-999.25	-999.25	-999.25	1315.23	-999.25	1304.53	400942	87049.2
1316.7	-999.25	-999.25	-999.25	-999.25	-999.25	-999.25	-999.25	-999.25	-999.25	-999.25	-999.25	1316.74	-999.25	1306.04	400942	87049.2
1318.2	-999.25	-999.25	-999.25	-999.25	-999.25	-999.25	-999.25	-999.25	-999.25	-999.25	-999.25	1318.24	-999.25	1307.54	400942	87049.2
1319.7	-999.25	-999.25	-999.25	-999.25	-999.25	-999.25	-999.25	-999.25	-999.25	-999.25	-999.25	1319.74	-999.25	1309.04	400942	87049.2
1321.2	-999.25	-999.25	-999.25	-999.25	-999.25	-999.25	-999.25	-999.25	-999.25	-999.25	-999.25	1321.24	-999.25	1310.54	400942	87049.2
1322.7	-999.25	-999.25	-999.25	-999.25	-999.25	-999.25	-999.25	-999.25	-999.25	-999.25	-999.25	1322.74	-999.25	1312.04	400942	87049.2
1324.2	-999.25	-999.25	-999.25	-999.25	-999.25	-999.25	-999.25	-999.25	-999.25	-999.25	-999.25	1324.24	-999.25	1313.54	400942	87049.2
1325.7	-999.25	-999.25	-999.25	-999.25	-999.25	-999.25	-999.25	-999.25	-999.25	-999.25	-999.25	1325.73	-999.25	1315.03	400942	87048.8
1327.2	-999.25	-999.25	-999.25	-999.25	-999.25	-999.25	-999.25	-999.25	-999.25	-999.25	-999.25	1327.24	-999.25	1316.54	400942	87048.8
1328.7	-999.25	-999.25	-999.25	-999.25	-999.25	-999.25	-999.25	-999.25	-999.25	-999.25	-999.25	1328.74	-999.25	1318.04	400942	87048.8
1330.2	-999.25	-999.25	-999.25	-999.25	-999.25	-999.25	-999.25	-999.25	-999.25	-999.25	-999.25	1330.24	-999.25	1319.54	400942	87048.8
1331.7	-999.25	-999.25	-999.25	-999.25	-999.25	-999.25	-999.25	-999.25	-999.25	-999.25	-999.25	1331.74	-999.25	1321.04	400942	87048.8
1333.2	-999.25	-999.25	-999.25	-999.25	-999.25	-999.25	-999.25	-999.25	-999.25	-999.25	-999.25	1333.24	-999.25	1322.54	400942	87048.8
1334.7	-999.25	-999.25	-999.25	-999.25	-999.25	-999.25	-999.25	-999.25	-999.25	-999.25	-999.25	1334.74	-999.25	1324.04	400942	87048.8
1336.2	-999.25	-999.25	-999.25	-999.25	-999.25	-999.25	-999.25	-999.25	-999.25	-999.25	-999.25	1336.24	-999.25	1325.54	400942	87048.8
1337.7	-999.25	-999.25	-999.25	-999.25	-999.25	-999.25	-999.25	-999.25	-999.25	-999.25	-999.25	1337.74	-999.25	1327.04	400942	87048.8
1339.2	-999.25	-999.25	-999.25	-999.25	-999.25	-999.25	-999.25	-999.25	-999.25	-999.25	-999.25	1339.24	-999.25	1328.54	400942	87048.8
1340.7	-999.25	-999.25	-999.25	-999.25	-999.25	-999.25	-999.25	-999.25	-999.25	-999.25	-999.25	1340.74	-999.25	1330.04	400942	87048.8
1342.2	-999.25	-999.25	-999.25	-999.25	-999.25	-999.25	-999.25	-999.25	-999.25	-999.25	-999.25	1342.24	-999.25	1331.54	400942	87048.8
1343.7	-999.25	-999.25	-999.25	-999.25	-999.25	-999.25	-999.25	-999.25	-999.25	-999.25	-999.25	1343.74	-999.25	1333.04	400942	87048.8
1345.2	-999.25	-999.25	-999.25	-999.25	-999.25	-999.25	-999.25	-999.25	-999.25	-999.25	-999.25	1345.24	-999.25	1334.54	400942	87048.8
1346.7	-999.25	-999.25	-999.25	-999.25	-999.25	-999.25	-999.25	-999.25	-999.25	-999.25	-999.25	1346.74	-999.25	1336.04	400942	87048.8
1348.2	-999.25	-999.25	-999.25	-999.25	-999.25	-999.25	-999.25	-999.25	-999.25	-999.25	-999.25	1348.24	-999.25	1337.54	400942	87048.8
1349.7	-999.25	-999.25	-999.25	-999.25	-999.25	-999.25	-999.25	-999.25	-999.25	-999.25	-999.25	1349.75	-999.25	1339.05	400942	87048.8
1351.2	-999.25	-999.25	-999.25	-999.25	-999.25	-999.25	-999.25	-999.25	-999.25	-999.25	-999.25	1351.24	-999.25	1340.54	400942	87048.4
1352.7	-999.25	-999.25	-999.25	-999.25	-999.25	-999.25	-999.25	-999.25	-999.25	-999.25	-999.25	1352.74	-999.25	1342.04	400942	87048.4
1354.2	-999.25	-999.25	-999.25	-999.25	-999.25	-999.25	-999.25	-999.25	-999.25	-999.25	-999.25	1354.24	-999.25	1343.54	400942	87048.4
1355.7	-999.25	-999.25	-999.25	-999.25	-999.25	-999.25	-999.25	-999.25	-999.25	-999.25	-999.25	1355.74	-999.25	1345.04	400942	87048.4
1357.2	-999.25	-999.25	-999.25	-999.25	-999.25	-999.25	-999.25	-999.25	-999.25	-999.25	-999.25	1357.24	-999.25	1346.54	400942	87048.4
1358.7	-999.25	-999.25	-999.25	-999.25	-999.25	-999.25	-999.25	-999.25	-999.25	-999.25	-999.25	1358.74	-999.25	1348.04	400942	87048.4
1360.2	-999.25	-999.25	-999.25	-999.25	-999.25	-999.25	-999.25	-999.25	-999.25	-999.25	-999.25	1360.25	-999.25	1349.55	400942	87048.4
1361.7	-999.25	-999.25	-999.25	-999.25	-999.25	-999.25	-999.25	-999.25	-999.25	-999.25	-999.25	1361.75	-999.25	1351.05	400942	87048.4
1363.2	-999.25	-999.25	-999.25	-999.25	-999.25	-999.25	-999.25	-999.25	-999.25	-999.25	-999.25	1363.25	-999.25	1352.55	400942	87048.4
1364.7	-999.25	-999.25	-999.25	-999.25	-999.25	-999.25	-999.25	-999.25	-999.25	-999.25	-999.25	1364.75	-999.25	1354.05	400942	87048.4
1366.2	-999.25	-999.25	-999.25	-999.25	-999.25	-999.25	-999.25	-999.25	-999.25	-999.25	-999.25	1366.25	-999.25	1355.55	400942	87048.4
1367.7	-999.25	-999.25	-999.25	-999.25	-999.25	-999.25	-999.25	-999.25	-999.25	-999.25	-999.25	1367.75	-999.25	1357.05	400942	87048.4
1369.2	-999.25	-999.25	-999.25	-999.25	-999.25	-999.25	-999.25	-999.25	-999.25	-999.25	-999.25	1369.25	-999.25	1358.55	400942	87048.4
1370.7	-999.25	-999.25	-999.25	-999.25	-999.25	-999.25	-999.25	-999.25	-999.25	-999.25	-999.25	1370.75	-999.25	1360.05	400942	87048.4
1372.2	-999.25	-999.25	-999.25	-999.25	-999.25	-999.25	-999.25	-999.25	-999.25	-999.25	-999.25	1372.25	-999.25	1361.55	400942	87048.4
1373.7	-999.25	-999.25	-999.25	-999.25	-999.25	-999.25	-999.25	-999.25	-999.25	-999.25	-999.25	1373.75	-999.25	1363.05	400942	87048.4
1375.2	-999.25	-999.25	-999.25	-999.25	-999.25	-999.25	-999.25	-999.25	-999.25	-999.25	-999.25	1375.25	-999.25	1364.55	400942.5	87048.1
1376.7	-999.25	-999.25	-999.25	-999.25	-999.25	-999.25	-999.25	-999.25	-999.25	-999.25	-999.25	1376.75	-999.25	1366.05	400942.5	87048.1
1378.2	-999.25	-999.25	-999.25	-999.25	-999.25	-999.25	-999.25	-999.25	-999.25	-999.25	-999.25	1378.25	-999.25	1367.55	400942.5	87048.1
1379.7	-999.25	-999.25	-999.25	-999.25	-999.25	-999.25	-999.25	-999.25	-999.25	-999.25	-999.25	1379.75	-999.25	1369.05	400942.5	87048.1
1381.2	-999.25	-999.25	-999.25	-999.25	-999.25	-999.25	-999.25	-999.25	-999.25	-999.25	-999.25	1381.25	-999.25	1370.55	400942.5	87048.1
1382.7	-999.25	-999.25	-999.25	-999.25	-999.25	-999.25	-999.25	-999.25	-999.25	-999.25	-999.25	1382.75	-999.25	1372.05	400942.5	87048.1
1384.2	-999.25	-999.25	-999.25	-999.25	-999.25	-999.25	-999.25	-999.25	-999.25	-999.25	-999.25	1384.25	-999.25	1373.55	400942.5	87048.1
1385.7	-999.25	-999.25	-999.25	-999.25	-999.25	-999.25	-999.25	-999.25	-999.25	-999.25	-999.25	1385.75	-999.25	1375.05	400942.5	87048.1
1387.2	-999.25	-999.25	-999.25	-999.25	-999.25	-999.25	-999.25	-999.25	-999.25	-999.25	-999.25	1387.25	-999.25	1376.55	400942.5	87048.1
1388.7	-999.25	-999.25	-999.25	-999.25	-999.25	-999.25	-999.25	-999.25	-999.25	-999.25	-999.25	1388.75	-999.25	1378.05	400942.5	87048.1
1390.2	-999.25	-999.25	-999.25	-999.25	-999.25	-999.25	-999.25	-999.25	-999.25	-999.25	-999.25	1390.25	-999.25	1379.55	400942.5	87048.1
1391.7	-999.25	-999.25	-999.25	-999.25	-999.25	-999.25	-999.25	-999.25	-999.25	-999.25	-999.25	1391.75	-999.25	1381.05	400942.5	87048.1
1393.2	-999.25	-999.25	-999.25	-999.25	-999.25	-999.25	-999.25	-999.25	-999.25	-999.25	-999.25	1393.26	-999.25	1382.56	400942.5	87048.1
1394.7	-999.25	-999.25	-999.25	-999.25	-999.25	-999.25	-999.25	-999.25	-999.25	-999.25	-999.25	1394.76	-999.25	1384.06	400942.5	87048.1
1396.2	-999.25	-999.25	-999.25	-999.25	-999.25	-999.25	-999.25	-999.25	-999.25	-999.25	-999.25	1396.26	-999.25	1385.56	400942.5	87048.1
1397.7	-999.25	-999.25	-999.25	-999.25	-999.25	-999.25	-999.25	-999.25	-999.25	-999.25	-999.25	1397.76	-999.25	1387.06	400942.5	87048.1
1399.2	-999.25	-999.25	-999.25	-999.25	-999.25	-999.25	-999.25	-999.25	-999.25	-999.25	-999.25	1399.26	-999.25	1388.56	400942.5	87048.1
1400.7	-999.25	-999.25	-999.25	-999.25	-999.25	-999.25	-999.25	-999.25	-999.25	-999.25	-999.25	1400.75	-999.25	1390.05	400943	87047.5
1402.2	-999.25	-999.25	-999.25	-999.25	-999.25	-999.25	-999.25	-999.25	-999.25	-999.25	-999.25	1402.25	-999.25	1391.55	400943	87047.5
1403.7	-999.25	-999.25	-999.25	-999.25	-999.25	-999.25	-999.25	-999.25	-999.25	-999.25	-999.25	1403.76	-999.25	1393.06	400943	87047.5
1405.2	-999.25	-999.25	-999.25	-999.25	-999.25	-999.25	-999.25	-999.25	-999.25	-999.25	-999.25	1405.26	-999.25	1394.56	400943	87047.5
1406.7	-999.25	-999.25	-999.25	-999.25	-999.25	-999.25	-999.25	-999.25	-999.25	-999.25	-999.25	1406.76	-999.25	1396.06	400943	87047.5
1408.2	-999.25	-999.25	-999.25	-999.25	-999.25	-999.25	-999.25	-999.25	-999.25	-999.25	-999.25	1408.26	-999.25	1397.56	400943	87047.5
1409.7	-999.25	-999.25	-999.25	-999.25	-999.25	-999.25	-999.25	-999.25	-999.25	-999.25	-999.25	1409.76	-999.25	1399.06	400943	87047.5
1411.2	-999.25	-999.25	-999.25	-999.25	-999.25	-999.25	-999.25	-999.25	-999.25	-999.25	-999.25	1411.26	-999.25	1400.56	400943	87047.5
1412.7	-999.25	-999.25	-999.25	-999.25	-999.25	-999.25	-999.25	-999.25	-999.25	-999.25	-999.25	1412.76	-999.25	1402.06	400943	87047.5
1414.2	-999.25	-999.25	-999.25	-999.25	-999.25	-999.25	-999.25	-999.25	-999.25	-999.25	-999.25	1414.26	-999.25	1403.56	400943	87047.5
1415.7	-999.25	-999.25	-999.25	-999.25	-999.25	-999.25	-999.25	-999.25	-999.25	-999.25	-999.25	1415.76	-999.25	1405.06	400943	87047.5
1417.2	-999.25	-999.25	-999.25	-999.25	-999.25	-999.25	-999.25	-999.25	-999.25	-999.25	-999.25	1417.26	-999.25	1406.56	400943	87047.5
1418.7	-999.25	-999.25	-999.25	-999.25	-999.25	-999.25	-999.25	-999.25	-999.25	-999.25	-999.25	1418.76	-999.25	1408.06	400943	87047.5
1420.2	-999.25	-999.25	-999.25	-999.25	-999.25	-999.25	-999.25	-999.25	-999.25	-999.25	-999.25	1420.26	-999.25	1409.56	400943	87047.5
1421.7	-999.25	-999.25	-999.25	-999.25	-999.25	-999.25	-999.25	-999.25	-999.25	-999.25	-999.25	1421.76	-999.25	1411.06	400943	87047.5
1423.2	-999.25	-999.25	-999.25	-999.25	-999.25	-999.25	-999.25	-999.25	-999.25	-999.25	-999.25	1423.26	-999.25	1412.56	400943	87047.5
1424.7	-999.25	-999.25	-999.25	-999.25	0.765705	0.148	0.312368	-999.25	-999.25	-999.25	-999.25	1424.76	-999.25	1414.06	400943	87047.5
1426.2	-999.25	-999.25	-999.25	-999.25	0.74842	0.149268	0.29927	-999.25	-999.25	-999.25	-999.25	1426.26	-999.25	1415.56	400943	87046.8
1427.7	-999.25	-999.25	-999.25	-999.25	0.760624	0.15	0.297603	-999.25	-999.25	-999.25	-999.25	1427.76	-999.25	1417.06	400943	87046.8
1429.2	-999.25	-999.25	-999.25	-999.25	0.782643	0.149906	0.315095	-999.25	-999.25	-999.25	-999.25	1429.26	-999.25	1418.56	400943	87046.7
1430.7	-999.25	-999.25	-999.25	-999.25	0.80607	0.149205	0.306876	-999.25	-999.25	-999.25	-999.25	1430.76	-999.25	1420.06	400943	87046.6
1432.2	-999.25	-999.25	-999.25	-999.25	0.782121	0.149	0.307176	-999.25	-999.25	-999.25	-999.25	1432.26	-999.25	1421.56	400943	87046.5
1433.7	-999.25	-999.25	-999.25	-999.25	0.784088	0.15	0.316546	-999.25	-999.25	-999.25	-999.25	1433.76	-999.25	1423.06	400943	87046.5
1435.2	-999.25	-999.25	-999.25	-999.25	0.770371	0.146677	0.301972	-999.25	-999.25	-999.25	-999.25	1435.26	-999.25	1424.56	400943	87046.375
1436.7	-999.25	-999.25	-999.25	-999.25	0.823329	0.148165	0.303082	-999.25	-999.25	-999.25	-999.25	1436.77	-999.25	1426.07	400943	87046.3
1438.2	-999.25	-999.25	-999.25	-999.25	0.801638	0.149984	0.306237	-999.25	-999.25	-999.25	-999.25	1438.27	-999.25	1427.57	400943	87046.2
1439.7	-999.25	-999.25	-999.25	-999.25	0.827072	0.14985	0.304434	-999.25	-999.25	-999.25	-999.25	1439.77	-999.25	1429.07	400943	87046.1
1441.2	-999.25	-999.25	-999.25	-999.25	0.820731	0.149614	0.302574	-999.25	-999.25	-999.25	-999.25	1441.27	-999.25	1430.57	400943	87046.1
1442.7	-999.25	-999.25	56.1862	59.6385	0.780664	0.15	0.313936	-999.25	-999.25	-999.25	-999.25	1442.77	-999.25	1432.07	400943	87046
1444.2	-999.25	-999.25	56.3803	73.0266	0.801311	0.148	0.302664	-999.25	-999.25	-999.25	-999.25	1444.27	-999.25	1433.57	400943	87045.9
1445.7	-999.25	-999.25	56.5338	65.42	0.798149	0.149559	0.313721	-999.25	-999.25	-999.25	-999.25	1445.77	-999.25	1435.07	400943	87045.8
1447.2	8.70852	-999.25	56.5673	59.3386	0.862004	0.149063	0.3071	0.349519	2.29872	-999.25	-999.25	1447.27	-999.25	1436.57	400943	87045.8
1448.7	8.70227	-999.25	57.3364	60.7269	0.849465	0.148374	0.31748	0.358391	2.43402	-999.25	-999.25	1448.77	-999.25	1438.07	400943	87045.7
1450.2	8.69734	-999.25	56.5057	65.8546	0.86984	0.149252	0.305312	0.371547	2.37055	-999.25	-999.25	1450.27	-999.25	1439.57	400943	87046.1
1451.7	8.69982	-999.25	56.6493	75.8494	0.831898	0.15	0.297969	0.461448	2.3204	-999.25	-999.25	1451.77	-999.25	1441.07	400943	87046
1453.2	8.71099	-999.25	56.5723	75.4128	0.789247	0.148866	0.319185	0.458817	2.36943	-999.25	-999.25	1453.27	-999.25	1442.57	400943	87045.9
1454.7	8.70515	-999.25	56.6459	73.0358	0.817666	0.149	0.315408	0.387335	2.55277	-999.25	-999.25	1454.77	-999.25	1444.07	400943	87045.9
1456.2	8.69931	-999.25	56.29	65.8759	0.816317	0.149	0.329431	0.414435	2.52362	-999.25	-999.25	1456.27	-999.25	1445.57	400943	87045.8
1457.7	8.7114	-999.25	56.8499	68.9596	0.804847	0.149	0.325968	0.374009	2.57268	-999.25	-999.25	1457.77	-999.25	1447.07	400943	87045.7
1459.2	8.70318	-999.25	56.3559	84.842	0.798263	0.149394	0.330803	0.459583	2.62819	-999.25	-999.25	1459.27	-999.25	1448.57	400943	87045.625
1460.7	8.70649	-999.25	56.2437	81.1738	0.827804	0.149	0.330673	0.385373	2.6361	-999.25	-999.25	1460.77	-999.25	1450.07	400943	87045.5
1462.2	8.711	-999.25	56.2801	65.2342	0.804891	0.149512	0.33558	0.314131	2.83237	-999.25	-999.25	1462.27	-999.25	1451.57	400943	87045.5
1463.7	8.70843	-999.25	56.0641	73.4031	0.853278	0.149669	0.337008	0.38774	2.71774	-999.25	-999.25	1463.77	-999.25	1453.07	400943	87045.4
1465.2	8.72025	-999.25	56.387	68.8946	0.861227	0.148173	0.322498	0.391376	2.74106	-999.25	-999.25	1465.27	-999.25	1454.57	400943	87045.3
1466.7	8.70386	-999.25	56.37	72.4968	0.82669	0.15	0.328791	0.370246	2.77378	-999.25	-999.25	1466.77	-999.25	1456.07	400943	87045.2
1468.2	8.73298	-999.25	56.5053	71.2941	0.80025	0.150717	0.34505	0.389927	2.53246	-999.25	-999.25	1468.27	-999.25	1457.57	400943	87045.2
1469.7	8.7341	-999.25	56.2512	79.7232	0.813927	0.149	0.326624	0.391194	2.36477	-999.25	-999.25	1469.77	-999.25	1459.07	400943	87045.1
1471.2	8.7339	-999.25	60.9232	71.0208	0.805819	0.15327	0.309264	0.435662	2.23425	-999.25	-999.25	1471.28	-999.25	1460.58	400943	87045
1472.7	8.70849	-999.25	77.2615	74.5308	4.25864	0.151553	0.343804	0.403639	2.44368	-999.25	-999.25	1472.78	-999.25	1462.08	400943	87044.9
1474.2	8.68798	-999.25	75.4646	75.4998	0.878031	0.149228	0.305669	0.400826	2.30594	-999.25	-999.25	1474.28	-999.25	1463.58	400943	87044.9
1475.7	8.68811	-999.25	73.6933	70.4321	0.840728	0.149	0.305731	0.347781	2.38806	-999.25	-999.25	1475.77	-999.25	1465.07	400944	87045.4
1477.2	8.68955	-999.25	75.4214	86.8545	0.849771	0.149	0.316142	0.364718	2.48081	-999.25	-999.25	1477.27	-999.25	1466.57	400944	87045.3
1478.7	8.68614	-999.25	77.4827	79.9657	0.872817	0.149756	0.33186	0.34546	2.61115	-999.25	-999.25	1478.77	-999.25	1468.07	400944	87045.2
1480.2	8.70787	-999.25	75.7662	97.1465	0.842081	0.149	0.314492	0.364926	2.61012	-999.25	-999.25	1480.27	-999.25	1469.57	400944	87045.125
1481.7	8.71106	-999.25	77.1204	81.6929	0.698942	0.149559	0.315135	0.35891	2.70576	-999.25	-999.25	1481.77	-999.25	1471.06	400944	87045.1
1483.2	8.7167	-999.25	77.8856	76.1986	0.433312	0.153134	0.335022	0.372804	2.06994	-999.25	-999.25	1483.27	-999.25	1472.56	400944	87045
1484.7	8.97378	-999.25	96.0702	75.5479	0.111275	0.090574	0.333026	0.390343	2.02495	-999.25	-999.25	1484.77	-999.25	1474.06	400944	87044.9
1486.2	11.8986	-999.25	76.0706	113.625	3.56017	3.41934	5.98623	0.381694	2.45045	-999.25	-999.25	1486.27	-999.25	1475.56	400944	87044.8
1487.7	12.4049	-999.25	76.8213	116.61	4.64777	4.0206	5.07229	0.360556	2.54457	-999.25	-999.25	1487.77	-999.25	1477.06	400944	87044.7
1489.2	12.2328	-999.25	76.3861	123.393	4.63574	4.40957	4.58178	0.297091	2.57504	-999.25	-999.25	1489.27	-999.25	1478.56	400944	87044.7
1490.7	9.77361	-999.25	85.9389	148.51	3.17673	3.0029	3.57506	0.299816	2.50764	-999.25	-999.25	1490.77	-999.25	1480.05	400944	87044.6
1492.2	9.58094	-999.25	80.3162	125.187	3.93115	3.62446	4.86727	0.227575	2.55474	-999.25	-999.25	1492.27	-999.25	1481.55	400944	87044.5
1493.7	9.44196	-999.25	83.39	159.343	3.29435	3.04557	3.98086	0.262104	2.5469	-999.25	-999.25	1493.77	-999.25	1483.05	400944	87044.4
1495.2	9.53108	-999.25	81.1636	136.743	3.75436	3.3878	5.11077	0.255355	2.57919	-999.25	-999.25	1495.27	-999.25	1484.55	400944	87044.4
1496.7	9.5616	-999.25	79.4759	134.091	3.62783	3.3281	4.20033	0.283857	2.54001	-999.25	-999.25	1496.76	-999.25	1486.05	400944	87044.3
1498.2	9.40921	-999.25	79.576	141.135	3.83786	3.48166	4.1472	0.271363	2.5805	-999.25	-999.25	1498.26	-999.25	1487.55	400944	87044.2
1499.7	9.33478	-999.25	81.6491	143.835	3.07349	2.75124	3.8691	0.29674	2.53385	-999.25	-999.25	1499.76	-999.25	1489.04	400944	87044.125
1501.2	9.30989	-999.25	82.2208	147.7	3.48372	3.02098	3.44256	0.279645	2.575	-999.25	-999.25	1501.26	-999.25	1490.54	400944	87044.1
1502.7	9.29483	-999.25	75.5589	127.372	3.3949	2.92577	5.67446	0.272628	2.57173	-999.25	-999.25	1502.76	-999.25	1492.04	400944	87044
1504.2	9.29906	-999.25	88.4373	172.943	2.67169	2.26862	3.26395	0.300834	2.50681	-999.25	-999.25	1504.26	-999.25	1493.54	400944	87043.9
1505.7	9.406	-999.25	80.0362	144.704	3.44898	2.89366	3.16038	0.306262	2.54683	-999.25	-999.25	1505.76	-999.25	1495.04	400944	87043.8
1507.2	9.44912	-999.25	76.9488	145.529	4.13831	3.3523	6.084	0.236443	2.56582	-999.25	-999.25	1507.26	-999.25	1496.54	400944	87043.7
1508.7	9.46072	-999.25	81.5307	137.489	3.11317	2.6526	3.56065	0.258959	2.56357	-999.25	-999.25	1508.76	-999.25	1498.03	400944	87043.7
1510.2	9.40991	-999.25	78.6116	142.196	3.19993	2.76142	5.96723	0.235827	2.56422	-999.25	-999.25	1510.26	-999.25	1499.53	400944	87043.6
1511.7	9.35224	-999.25	77.6758	136.532	3.42869	2.96477	4.2062	0.24325	2.57321	-999.25	-999.25	1511.76	-999.25	1501.03	400944	87043.5
1513.2	9.35183	-999.25	81.7331	146.947	3.0154	2.68834	2.85129	0.299587	2.55758	-999.25	-999.25	1513.26	-999.25	1502.53	400944	87043.4
1514.7	9.34494	-999.25	71.4333	122.131	4.2707	3.70282	6.48767	0.196461	2.61533	-999.25	-999.25	1514.76	-999.25	1504.03	400944	87043.4
1516.2	9.32815	-999.25	81.2138	156.331	2.95164	2.67344	3.46426	0.272432	2.54103	-999.25	-999.25	1516.26	-999.25	1505.52	400944	87043.3
1517.7	9.26854	-999.25	78.3441	150.606	3.49734	3.1447	4.67887	0.230845	2.55568	-999.25	-999.25	1517.76	-999.25	1507.02	400944	87043.2
1519.2	9.32882	-999.25	78.157	150.785	2.9774	3.06431	4.31016	0.241498	2.542	-999.25	-999.25	1519.26	-999.25	1508.52	400944	87043.125
1520.7	9.51053	-999.25	72.2974	113.705	5.23712	4.40246	5.21314	0.172779	2.64462	-999.25	-999.25	1520.76	-999.25	1510.02	400944	87043.1
1522.2	9.48398	-999.25	85.5298	166.875	2.08212	1.93081	3.02868	0.31011	2.52216	-999.25	-999.25	1522.26	-999.25	1511.52	400944	87043
1523.7	9.51697	-999.25	82.9019	175.231	2.97201	2.49786	3.48787	0.267099	2.55603	-999.25	-999.25	1523.75	-999.25	1513.02	400944	87042.9
1525.2	9.671	-999.25	81.7587	154.618	2.96818	2.49117	3.56716	0.257079	2.54101	-999.25	-999.25	1525.25	-999.25	1514.51	400944	87042.8
1526.7	9.65949	-999.25	80.2943	140.694	2.99727	2.63522	3.72722	0.27592	2.55061	-999.25	-999.25	1526.75	-999.25	1516.01	400944	87042.7
1528.2	9.67651	-999.25	83.8388	147.725	2.88612	2.573	3.86452	0.271805	2.56182	-999.25	-999.25	1528.25	-999.25	1517.51	400944	87042.7
1529.7	9.67208	-999.25	80.5701	147.908	2.91379	2.65468	3.34774	0.271628	2.5503	-999.25	-999.25	1529.75	-999.25	1519.01	400944	87042.6
1531.2	9.68544	-999.25	80.7109	145.235	2.69745	2.35031	3.13328	0.263139	2.55449	-999.25	-999.25	1531.25	-999.25	1520.51	400944	87042.5
1532.7	9.80414	-999.25	76.6203	140.045	2.94062	2.45497	3.07903	0.231331	2.53829	-999.25	-999.25	1532.75	-999.25	1522.01	400944	87042.4
1534.2	9.81337	-999.25	78.5646	147.291	3.13844	2.57819	3.44605	0.245767	2.55179	-999.25	-999.25	1534.25	-999.25	1523.5	400944	87042.4
1535.7	9.84383	-999.25	75.5183	137.079	3.03477	2.57536	3.886	0.227388	2.56492	-999.25	-999.25	1535.75	-999.25	1525	400944	87042.3
1537.2	9.87032	-999.25	84.0588	147.876	2.15774	1.87672	2.70867	0.300165	2.53842	-999.25	-999.25	1537.25	-999.25	1526.5	400944	87042.2
1538.7	9.97947	-999.25	75.6256	136.413	3.1975	2.73121	3.87813	0.223751	2.55135	-999.25	-999.25	1538.75	-999.25	1528	400944	87042.1
1540.2	9.99199	-999.25	75.2265	141.225	3.08533	2.6815	10.9338	0.258835	2.572	-999.25	-999.25	1540.25	-999.25	1529.5	400944	87042.1
1541.7	10.0296	-999.25	79.6675	134.673	2.6567	2.33719	3.37646	0.260372	2.56296	-999.25	-999.25	1541.75	-999.25	1530.99	400944	87042
1543.2	9.99232	-999.25	77.0993	138.316	2.89234	2.54891	3.14017	0.254685	2.55545	-999.25	-999.25	1543.25	-999.25	1532.49	400944	87041.9
1544.7	9.94213	-999.25	78.4299	144.294	2.95545	2.61599	3.17908	0.255365	2.53752	-999.25	-999.25	1544.75	-999.25	1533.99	400944	87041.8
1546.2	9.78893	-999.25	76.9583	137.1	2.98949	2.67138	3.46127	0.235161	2.53637	-999.25	-999.25	1546.25	-999.25	1535.49	400944	87041.7
1547.7	10.0197	-999.25	77.6128	149.569	3.10986	2.74247	3.22211	0.224744	2.55607	-999.25	-999.25	1547.75	-999.25	1536.99	400944	87041.7
1549.2	10.1611	-999.25	77.1264	135.898	2.88147	2.60968	3.33134	0.252179	2.54526	-999.25	-999.25	1549.25	-999.25	1538.49	400944	87041.6
1550.7	10.1719	-999.25	83.9731	148.153	2.51859	2.33173	3.28221	0.275592	2.53541	-999.25	-999.25	1550.74	-999.25	1539.98	400944	87041.5
1552.2	10.3279	-999.25	80.9923	191.257	2.95455	2.77738	4.52167	0.23942	2.546	-999.25	-999.25	1552.24	-999.25	1541.48	400944	87041.4
1553.7	10.576	-999.25	74.3941	148.138	3.09611	2.95526	4.2219	0.229865	2.54531	-999.25	-999.25	1553.74	-999.25	1542.98	400944	87041.4
1555.2	10.6618	-999.25	75.274	132.765	3.35431	3.19939	4.30391	0.193578	2.54913	-999.25	-999.25	1555.24	-999.25	1544.48	400944	87041.3
1556.7	10.6431	-999.25	78.1312	155.405	2.99438	2.93999	4.15745	0.238748	2.56588	-999.25	-999.25	1556.74	-999.25	1545.98	400944	87041.2
1558.2	10.8425	-999.25	74.6721	136.257	3.45734	3.26194	5.90945	0.174377	2.56799	-999.25	-999.25	1558.24	-999.25	1547.48	400944	87041.1
1559.7	10.8456	-999.25	75.4292	137.393	3.21297	2.9284	3.60046	0.196348	2.54547	-999.25	-999.25	1559.74	-999.25	1548.97	400944	87041.1
1561.2	10.3936	-999.25	77.8917	155.481	2.87164	2.60996	3.75825	0.22423	2.53645	-999.25	-999.25	1561.24	-999.25	1550.47	400944	87041
1562.7	10.1944	-999.25	79.7434	149.687	2.60992	2.42677	3.53471	0.233308	2.53978	-999.25	-999.25	1562.74	-999.25	1551.97	400944	87040.9
1564.2	9.98667	-999.25	80.5789	159.417	2.60699	2.5579	3.84776	0.25852	2.55571	-999.25	-999.25	1564.24	-999.25	1553.47	400944	87040.8
1565.7	9.57935	-999.25	73.6427	139.496	4.38363	4.26117	6.95157	0.148434	2.56269	-999.25	-999.25	1565.69	-999.25	1554.97	400944	87040.7
1567.2	9.46176	-999.25	73.7943	149.494	2.79321	3.18678	3.76107	0.19238	2.49519	-999.25	-999.25	1567.21	-999.25	1556.46	400944	87040.7
1568.7	9.25062	-999.25	75.8296	142.493	3.5464	3.8925	5.11537	0.233734	2.53844	-999.25	-999.25	1568.71	-999.25	1557.96	400944	87040.6
1570.2	8.75171	-999.25	75.7901	139.65	5.04347	5.33444	7.22886	0.196707	2.47333	-999.25	-999.25	1570.27	-999.25	1559.46	400944	87040.5
1571.7	8.57109	0.156622	81.4354	175.588	4.18238	4.18104	4.87717	0.204724	2.41831	11.0153	-999.25	1571.76	-999.25	1560.96	400944	87040.4
1573.2	8.71614	-999.25	75.5105	162.059	4.17012	3.97008	3.7072	0.224248	2.52441	-999.25	-999.25	1573.23	-999.25	1562.46	400944	87040.4
1574.7	8.51603	-999.25	68.0739	107.234	8.98942	7.67836	26.3636	0.141987	2.48463	-999.25	-999.25	1574.74	-999.25	1563.96	400944	87040.3
1576.2	8.64031	-999.25	74.2574	159.8	3.53122	3.55111	3.99486	0.212874	2.52122	-999.25	-999.25	1576.2	-999.25	1565.45	400944	87040.2
1577.7	8.47706	-999.25	85.5961	155.161	5.84561	5.13476	2.39152	0.223852	2.26559	-999.25	-999.25	1577.71	-999.25	1566.95	400944	87040.1
1579.2	8.48408	-999.25	78.826	149.17	6.65807	5.77903	3.98018	0.185917	2.34707	-999.25	-999.25	1579.21	-999.25	1568.45	400944	87040.1
1580.7	8.79662	-999.25	78.4417	186.326	2.91798	2.76191	3.90197	0.243028	2.54201	-999.25	-999.25	1580.76	-999.25	1569.95	400944	87040
1582.2	8.74157	-999.25	76.7898	181.598	3.11017	2.73112	3.78255	0.241406	2.54845	-999.25	-999.25	1582.23	-999.25	1571.45	400944	87039.9
1583.7	8.46684	-999.25	83.6605	148.236	3.66407	2.81724	2.51609	0.2357	2.28129	-999.25	-999.25	1583.72	-999.25	1572.95	400944	87039.8
1585.2	8.469	0.20615	79.726	129.817	5.08679	3.72379	2.80396	0.208036	2.32762	107.192	-999.25	1585.17	-999.25	1574.44	400944	87039.7
1586.7	8.4769	-999.25	78.112	151.562	5.32137	3.73408	3.01536	0.191603	2.32888	-999.25	-999.25	1586.7	-999.25	1575.94	400944	87039.7
1588.2	8.47512	-999.25	79.6792	141.491	4.12964	2.95418	3.02429	0.208956	2.33823	-999.25	-999.25	1588.21	-999.25	1577.44	400944	87039.6
1589.7	8.47166	-999.25	78.3803	134.18	4.03765	2.92505	2.51984	0.201294	2.31141	-999.25	-999.25	1589.73	-999.25	1578.94	400944	87039.5
1591.2	8.52317	-999.25	76.8964	143.331	3.99047	3.03575	2.55325	0.171617	2.38275	-999.25	-999.25	1591.24	-999.25	1580.44	400944	87039.4
1592.7	8.47861	-999.25	80.108	160.861	3.83586	3.23587	4.09408	0.235806	2.49392	-999.25	-999.25	1592.73	-999.25	1581.94	400944	87039.4
1594.2	8.49128	-999.25	78.9605	181.029	4.145	3.87105	4.1116	0.21422	2.44166	-999.25	-999.25	1594.21	-999.25	1583.43	400944	87039.3
1595.7	8.50785	-999.25	87.4624	167.442	6.58301	5.45063	2.43625	0.26155	2.2859	-999.25	-999.25	1595.69	-999.25	1584.93	400944	87039.2
1597.2	8.52798	-999.25	76.2408	155.495	4.16668	3.59598	4.76649	0.196788	2.49669	-999.25	-999.25	1597.2	-999.25	1586.43	400944	87039.1
1598.7	8.52303	-999.25	81.7665	148.98	2.96918	2.52872	2.94458	0.221899	2.378	-999.25	-999.25	1598.75	-999.25	1587.93	400944	87039.1
1600.2	8.6322	0.145	75.7907	160.143	4.401	3.6799	4.5963	0.2062	2.4995	87	-999.25	1600.25	-999.25	1589.43	400944	87039
1601.7	8.47815	-999.25	84.3379	166.656	4.38962	3.70606	3.74539	0.238927	2.35067	-999.25	-999.25	1601.73	-999.25	1590.92	400944	87038.9
1603.2	8.47927	-999.25	79.4308	168.25	4.36587	3.78154	3.712	0.219073	2.45977	-999.25	-999.25	1603.23	-999.25	1592.42	400944	87038.8
1604.7	8.47694	-999.25	90.3677	124.363	4.6255	3.8657	1.72901	0.240905	2.25706	-999.25	-999.25	1604.72	-999.25	1593.92	400944	87038.7
1606.2	8.47411	-999.25	73.5539	116.777	8.30918	7.03157	6.34756	0.162523	2.43855	-999.25	-999.25	1606.19	-999.25	1595.42	400944	87038.7
1607.7	8.48022	-999.25	88.3677	128.958	4.83329	4.16494	1.58304	0.250362	2.26594	-999.25	-999.25	1607.75	-999.25	1596.92	400944	87038.6
1609.2	8.51629	-999.25	82.6104	152.67	2.92954	2.58994	2.59143	0.198261	2.3293	-999.25	-999.25	1609.26	-999.25	1598.42	400944	87038.5
1610.7	8.52113	-999.25	75.4097	160.242	3.8206	3.31951	4.14968	0.201924	2.51579	-999.25	-999.25	1610.71	-999.25	1599.91	400944	87038.4
1612.2	8.50362	-999.25	79.3216	160.222	3.92412	3.6532	4.54378	0.227346	2.45393	-999.25	-999.25	1612.21	-999.25	1601.41	400944	87038.4
1613.7	8.47531	-999.25	84.6717	125.962	5.05321	4.77961	2.59041	0.21512	2.33713	-999.25	-999.25	1613.7	-999.25	1602.91	400944	87038.3
1615.2	8.49543	-999.25	84.2774	104.966	5.22283	4.73081	1.59714	0.203129	2.27885	-999.25	-999.25	1615.21	-999.25	1604.41	400944	87038.2
1616.7	8.56494	-999.25	87.8452	114.013	3.62794	3.00126	1.44069	0.219471	2.24607	-999.25	-999.25	1616.75	-999.25	1605.91	400944	87038.1
1618.2	8.54589	-999.25	74.4993	166.743	3.71856	3.38945	4.60668	0.192576	2.50878	-999.25	-999.25	1618.22	-999.25	1607.41	400944	87038.1
1619.7	8.47731	-999.25	83.3342	145.263	2.41811	2.24005	1.83364	0.228752	2.27769	-999.25	-999.25	1619.73	-999.25	1608.9	400944	87038
1621.2	8.48245	-999.25	85.0443	124.193	2.2675	2.01654	2.43676	0.264369	2.23255	-999.25	-999.25	1621.22	-999.25	1610.4	400944	87037.9
1622.7	8.47696	-999.25	83.3048	133.447	1.91095	1.67145	1.89834	0.193304	2.30782	-999.25	-999.25	1622.69	-999.25	1611.9	400944	87037.8
1624.2	8.477	0.144016	83.7793	136.672	2.06431	1.77736	1.93847	0.228624	2.29798	3.29795	-999.25	1624.17	-999.25	1613.4	400944	87037.75
1625.7	8.4818	-999.25	77.8827	151.637	2.26192	2.0356	2.94552	0.209368	2.3106	-999.25	-999.25	1625.66	-999.25	1614.87	400945	87041.1
1627.2	8.47975	-999.25	79.1693	171.8	2.04527	1.89559	2.32233	0.207811	2.35184	-999.25	-999.25	1627.19	-999.25	1616.39	400945	87041
1628.7	8.51576	-999.25	83.5892	126.839	1.41636	1.38253	1.60118	0.189139	2.31455	-999.25	-999.25	1628.75	-999.25	1617.9	400945	87040.9
1630.2	8.57557	-999.25	89.5884	108.893	4.81471	4.70862	5.96514	0.194026	2.21718	-999.25	-999.25	1630.23	-999.25	1619.42	400945	87040.8
1631.7	8.625	-999.25	81.8069	116.214	1.65816	1.8239	3.0792	0.201943	2.29307	-999.25	-999.25	1631.7	-999.25	1620.94	400945	87040.8
1633.2	8.50648	-999.25	91.6294	130.883	1.63266	1.73265	2.44745	0.28025	2.19533	-999.25	-999.25	1633.22	-999.25	1622.46	400945	87040.7
1634.7	8.47464	-999.25	71.2635	107.629	1.76797	1.68067	4.39533	0.154624	2.46392	-999.25	-999.25	1634.74	-999.25	1623.98	400945	87040.6
1636.2	8.47702	-999.25	76.1871	145.932	1.10747	1.0634	3.31489	0.233624	2.31118	-999.25	-999.25	1636.27	-999.25	1625.5	400945	87040.5
1637.7	8.52281	-999.25	88.0052	129.754	0.647399	0.614751	1.33057	0.237822	2.27287	-999.25	-999.25	1637.76	-999.25	1627.02	400945	87040.5
1639.2	8.64043	0.11422	73.9337	137.058	1.45058	1.51149	2.3322	0.166135	2.40418	0.840866	-999.25	1639.23	-999.25	1628.54	400945	87040.375
1640.7	8.82005	-999.25	75.0648	131.705	1.47585	1.56385	2.62174	0.166831	2.39635	-999.25	-999.25	1640.75	-999.25	1630.05	400945	87040.3
1642.2	8.9059	-999.25	70.8491	144.056	2.43713	2.6638	5.45975	0.175357	2.50005	-999.25	-999.25	1642.27	-999.25	1631.57	400945	87040.2
1643.7	8.72418	-999.25	74.2725	166.2	1.50685	1.65718	3.0207	0.161193	2.4396	-999.25	-999.25	1643.81	-999.25	1633.09	400945	87040.1
1645.2	8.47463	-999.25	77.1968	144.505	1.04669	1.05606	1.53993	0.166175	2.32226	-999.25	-999.25	1645.35	-999.25	1634.61	400945	87040.1
1646.7	8.47011	-999.25	82.3171	99.5022	0.59519	0.597356	1.1423	0.195272	2.34368	-999.25	-999.25	1646.95	-999.25	1636.13	400945	87040
1648.2	8.4691	-999.25	89.3837	132.079	0.480523	0.468537	0.854037	0.257816	2.20068	-999.25	-999.25	1648.25	-999.25	1637.65	400945	87039.9
1649.7	8.49198	0.205906	80.0652	164.85	0.93915	0.928895	1.61387	0.221345	2.3442	631.425	-999.25	1649.7	-999.25	1639.17	400945	87039.8
1651.2	8.49994	-999.25	76.8382	115.929	0.791696	0.824506	1.90985	0.190731	2.32588	-999.25	-999.25	1651.31	-999.25	1640.68	400945	87039.8
1652.7	8.49601	-999.25	66.7211	94.7759	1.46135	1.60556	5.49417	0.201155	2.3757	-999.25	-999.25	1652.85	-999.25	1642.2	400945	87039.7
1654.2	8.51279	-999.25	74.4301	150.25	1.35386	1.51206	3.28329	0.172471	2.37877	-999.25	-999.25	1654.41	-999.25	1643.72	400945	87039.6
1655.7	8.50137	-999.25	82.8068	209.025	0.701166	0.736742	1.23022	0.244639	2.26564	-999.25	-999.25	1655.99	-999.25	1645.24	400945	87039.5
1657.2	8.49232	-999.25	79.5396	81.5731	0.770202	0.798091	1.39712	0.208531	2.37754	-999.25	-999.25	1657.26	-999.25	1646.76	400945	87039.5
1658.7	8.50139	0.188567	76.5201	133.165	1.00625	1.0733	1.97125	0.180279	2.38346	36.7717	-999.25	1658.71	-999.25	1648.28	400945	87039.375
1660.2	8.50233	-999.25	78.2727	142.563	1.10784	1.09123	2.27908	0.207731	2.31205	-999.25	-999.25	1660.62	-999.25	1649.8	400945	87039.3
1661.7	8.50862	-999.25	74.534	88.671	0.768486	0.755111	3.03433	0.209611	2.31276	-999.25	-999.25	1661.89	-999.25	1651.32	400945	87039.2
1663.2	8.51299	-999.25	82.6106	160.292	0.511339	0.505409	0.904249	0.239337	2.25327	-999.25	-999.25	1663.47	-999.25	1652.83	400945	87039.1
1664.7	8.52904	-999.25	77.1064	101.754	0.79286	0.819673	1.26742	0.197384	2.32566	-999.25	-999.25	1665.06	-999.25	1654.35	400945	87039.1
1666.2	8.59543	-999.25	72.7006	125.644	1.56545	1.62333	2.90317	0.16529	2.44825	-999.25	-999.25	1666.67	-999.25	1655.87	400945	87039
1667.7	8.60218	0.132732	64.7271	98.7205	2.00567	2.20424	4.75211	0.160305	2.45503	84.5472	-999.25	1667.71	-999.25	1657.39	400945	87038.9
1669.2	8.63323	-999.25	76.0957	117.67	1.22808	1.37385	2.65908	0.174798	2.39633	-999.25	-999.25	1669.34	-999.25	1658.91	400945	87038.8
1670.7	8.73919	-999.25	70.644	96.2333	1.4645	1.61057	2.24434	0.136843	2.45641	-999.25	-999.25	1671.26	-999.25	1660.43	400945	87038.8
1672.2	8.65044	-999.25	72.4126	107.759	1.46471	1.66625	3.11192	0.182877	2.42117	-999.25	-999.25	1672.78	-999.25	1661.95	400945	87038.7
1673.7	8.70569	-999.25	79.8393	99.5354	0.612162	0.730761	1.14986	0.207537	2.31161	-999.25	-999.25	1674.3	-999.25	1663.46	400945	87038.6
1675.2	8.89236	-999.25	70.6257	124.559	2.84794	3.16202	6.01895	0.18475	2.47128	-999.25	-999.25	1675.82	-999.25	1664.98	400945	87038.5
1676.7	9.33603	-999.25	70.3152	124.876	1.8047	1.95344	4.3415	0.161215	2.48492	-999.25	-999.25	1677.34	-999.25	1666.5	400945	87038.5
1678.2	8.688	-999.25	75.4509	167.278	1.03933	1.14029	2.47811	0.243779	2.32112	-999.25	-999.25	1678.86	-999.25	1668.02	400945	87038.375
1679.7	8.6508	-999.25	79.5974	131.368	0.896192	0.962332	2.37992	0.204454	2.35614	-999.25	-999.25	1680.38	-999.25	1669.54	400945	87038.3
1681.2	8.89435	-999.25	74.4237	142.317	1.89048	2.14104	3.16339	0.190375	2.51123	-999.25	-999.25	1681.9	-999.25	1671.06	400945	87038.2
1682.7	9.17993	-999.25	75.9095	151.086	2.89824	3.08756	4.61818	0.208476	2.59787	-999.25	-999.25	1683.42	-999.25	1672.58	400945	87038.1
1684.2	8.94168	-999.25	75.5156	110.545	1.40216	1.48289	4.17854	0.18081	2.45843	-999.25	-999.25	1684.94	-999.25	1674.1	400945	87038.1
1685.7	8.69925	-999.25	84.9447	75.6789	0.575621	0.637822	1.36252	0.213072	2.30389	-999.25	-999.25	1686.46	-999.25	1675.61	400945	87038
1687.2	9.36565	-999.25	69.4372	111.214	2.66728	2.82357	3.62734	0.137746	2.51295	-999.25	-999.25	1687.98	-999.25	1677.13	400945	87037.9
1688.7	9.45859	-999.25	71.0339	108.478	2.1371	2.1614	3.59424	0.142953	2.52409	-999.25	-999.25	1689.5	-999.25	1678.65	400945	87037.8
1690.2	9.21414	-999.25	74.1676	120.287	1.25501	1.31504	3.25993	0.171372	2.42347	-999.25	-999.25	1691.02	-999.25	1680.17	400945	87037.8
1691.7	8.83482	-999.25	81.4402	125.234	0.608742	0.592954	1.03131	0.228059	2.2503	-999.25	-999.25	1692.54	-999.25	1681.69	400945	87037.7
1693.2	8.90351	-999.25	74.1114	133.151	1.32406	1.31192	1.78389	0.125176	2.39832	-999.25	-999.25	1694.06	-999.25	1683.21	400945	87037.6
1694.7	8.65421	-999.25	74.4187	127.974	1.0043	1.04954	3.42345	0.175286	2.3898	-999.25	-999.25	1695.58	-999.25	1684.73	400945	87037.5
1696.2	8.86634	-999.25	78.1415	133.148	1.22638	1.33885	2.97322	0.205435	2.41937	-999.25	-999.25	1697.1	-999.25	1686.24	400945	87037.5
1697.7	9.10175	-999.25	71.6879	137.321	2.22785	2.41894	4.27624	0.158313	2.48068	-999.25	-999.25	1698.62	-999.25	1687.76	400945	87037.375
1699.2	9.36863	-999.25	72.39	124.529	1.53403	1.73427	3.73059	0.186653	2.47979	-999.25	-999.25	1700.14	-999.25	1689.28	400945	87037.3
1700.7	8.64021	-999.25	77.8864	95.909	0.709377	0.828554	1.5362	0.191365	2.34448	-999.25	-999.25	1701.66	-999.25	1690.8	400945	87037.2
1702.2	9.31308	-999.25	70.4669	105.283	1.4491	1.68503	4.25237	0.16142	2.46335	-999.25	-999.25	1703.18	-999.25	1692.32	400945	87037.1
1703.7	8.8735	-999.25	73.736	126.984	1.85152	2.02754	3.42085	0.130735	2.46058	-999.25	-999.25	1704.7	-999.25	1693.84	400945	87037.1
1705.2	8.5314	-999.25	72.8212	108.614	1.32965	1.41292	2.39907	0.144242	2.39957	-999.25	-999.25	1706.22	-999.25	1695.36	400945	87037
1706.7	8.56098	-999.25	80.2516	104.488	0.707928	0.737346	1.19157	0.20355	2.30094	-999.25	-999.25	1707.74	-999.25	1696.88	400945	87036.9
1708.2	8.93131	-999.25	71.8299	108.608	2.07609	2.12827	4.00704	0.156985	2.48474	-999.25	-999.25	1709.26	-999.25	1698.39	400945	87036.8
1709.7	8.76969	-999.25	77.4977	95.848	1.1333	1.16265	2.48003	0.172934	2.42896	-999.25	-999.25	1710.78	-999.25	1699.91	400945	87036.8
1711.2	8.90035	-999.25	75.9598	82.6688	1.14584	1.14439	2.71524	0.15835	2.40941	-999.25	-999.25	1712.3	-999.25	1701.43	400945	87036.7
1712.7	9.10174	-999.25	74.0434	118.004	1.82737	1.75566	3.89323	0.182224	2.50431	-999.25	-999.25	1713.82	-999.25	1702.95	400945	87036.6
1714.2	8.94415	-999.25	75.5443	87.029	1.22037	1.23821	2.01222	0.18562	2.44285	-999.25	-999.25	1715.34	-999.25	1704.47	400945	87036.5
1715.7	8.73987	-999.25	77.2296	161.507	2.0737	2.19826	4.14767	0.205058	2.56497	-999.25	-999.25	1716.86	-999.25	1705.99	400945	87036.5
1717.2	8.66625	-999.25	72.1624	103.078	1.47838	1.4544	2.19262	0.143228	2.49817	-999.25	-999.25	1718.38	-999.25	1707.51	400945	87036.375
1718.7	8.77235	-999.25	76.1123	117.336	2.04524	2.16961	3.52271	0.177217	2.51311	-999.25	-999.25	1719.9	-999.25	1709.02	400945	87036.3
1720.2	8.70994	-999.25	73.2609	102.567	1.25434	1.3441	2.32246	0.153271	2.43121	-999.25	-999.25	1721.42	-999.25	1710.54	400945	87036.2
1721.7	8.58469	-999.25	67.4557	69.7401	2.01114	2.24767	5.17521	0.100509	2.53307	-999.25	-999.25	1722.94	-999.25	1712.06	400945	87036.1
1723.2	8.64429	-999.25	73.5412	88.0339	1.71625	1.89647	4.53409	0.14182	2.52216	-999.25	-999.25	1724.46	-999.25	1713.58	400945	87036.1
1724.7	8.90211	-999.25	80.2437	109.833	2.8678	3.13128	2.5551	0.235195	2.62386	-999.25	-999.25	1725.98	-999.25	1715.1	400945	87036
1726.2	8.72854	-999.25	81.0623	120.467	3.2164	3.39454	5.09455	0.258887	2.61815	-999.25	-999.25	1727.5	-999.25	1716.62	400945	87035.9
1727.7	8.80974	-999.25	80.6267	122.666	2.81529	2.96889	3.99361	0.246809	2.58397	-999.25	-999.25	1729.02	-999.25	1718.14	400945	87035.8
1729.2	8.68347	-999.25	82.6029	122.499	2.67091	2.77497	3.6244	0.262929	2.60885	-999.25	-999.25	1730.54	-999.25	1719.66	400945	87035.8
1730.7	8.7701	-999.25	82.2522	129.154	2.83092	2.92078	3.55065	0.285457	2.60438	-999.25	-999.25	1732.06	-999.25	1721.17	400945	87035.7
1732.2	8.54071	-999.25	80.3981	118.108	3.16116	3.26965	3.41003	0.249367	2.59613	-999.25	-999.25	1733.58	-999.25	1722.69	400945	87035.6
1733.7	8.71145	-999.25	81.9886	116.901	3.01965	3.15987	3.13379	0.269044	2.63237	-999.25	-999.25	1735.1	-999.25	1724.21	400945	87035.5
1735.2	8.6932	-999.25	76.7772	113.178	3.79047	3.84518	5.03628	0.243634	2.62613	-999.25	-999.25	1736.62	-999.25	1725.73	400945	87035.5
1736.7	8.53097	-999.25	79.1475	106.141	2.72332	2.78156	3.04362	0.237789	2.57694	-999.25	-999.25	1738.14	-999.25	1727.25	400945	87035.375
1738.2	8.41335	-999.25	78.3438	120.036	3.34844	3.34003	3.7514	0.248498	2.64613	-999.25	-999.25	1739.66	-999.25	1728.77	400945	87035.3
1739.7	8.42885	-999.25	81.3521	121.962	3.79106	3.778	3.86014	0.270269	2.62656	-999.25	-999.25	1741.18	-999.25	1730.29	400945	87035.2
1741.2	8.58622	-999.25	80.5988	119.066	3.47602	3.50436	3.10697	0.248572	2.60497	-999.25	-999.25	1742.7	-999.25	1731.8	400945	87035.1
1742.7	8.71902	-999.25	77.1163	113.778	4.60503	4.59525	6.27051	0.260292	2.63882	-999.25	-999.25	1744.22	-999.25	1733.32	400945	87035.1
1744.2	8.71898	-999.25	74.3606	110.296	4.81084	4.81145	6.0837	0.240973	2.64913	-999.25	-999.25	1745.74	-999.25	1734.84	400945	87035
1745.7	8.52076	-999.25	80.0083	122.499	4.21703	4.22251	4.05156	0.249413	2.63312	-999.25	-999.25	1747.26	-999.25	1736.36	400945	87034.9
1747.2	8.71131	-999.25	77.5943	103.919	4.229	4.19474	3.52963	0.242873	2.64717	-999.25	-999.25	1748.78	-999.25	1737.88	400945	87034.8
1748.7	8.57754	-999.25	75.2358	108.703	4.979	4.92425	3.518	0.235498	2.63489	-999.25	-999.25	1750.3	-999.25	1739.4	400945	87034.8
1750.2	8.56402	-999.25	82.6404	113.231	3.58003	3.58743	3.518	0.244963	2.62968	-999.25	-999.25	1751.82	-999.25	1740.92	400945	87034.7
1751.7	8.75018	-999.25	77.6544	113.25	3.85345	3.90291	3.518	0.243373	2.6511	-999.25	-999.25	1753.34	-999.25	1742.44	400945	87034.6
1753.2	8.71988	-999.25	78.1418	113.25	3.83194	3.89443	3.518	0.2417	2.64876	-999.25	-999.25	1754.86	-999.25	1743.95	400945	87034.5
1754.7	8.38125	-999.25	77.7522	113.25	-999.25	-999.25	-999.25	0.24588	2.60577	-999.25	-999.25	1756.38	-999.25	1745.47	400945	87034.5
1756.2	8.09084	-999.25	77.449	113.25	-999.25	-999.25	-999.25	0.249189	2.61676	-999.25	-999.25	1757.9	-999.25	1746.99	400945	87034.375
1757.7	4.176	-999.25	77.813	113.25	-999.25	-999.25	-999.25	0.2852	2.63795	-999.25	-999.25	1759.42	-999.25	1748.51	400945	87034.3
1758.2	-999.25	-999.25	-999.25	-999.25	-999.25	-999.25	-999.25	-999.25	-999.25	-999.25	-999.25	1759.92	-999.25	1749.02	400945	87034.3